Instruction_KeyP.keys,Instruction_KeyP.rt,Instruction2_KeyP.keys,Instruction2_KeyP.rt,Choice1.keys,Choice1.rt,Ex_Step1.thisRepN,Ex_Step1.thisTrialN,Ex_Step1.thisN,Ex_Step1.thisIndex,Ex_Step1.ran,email,date,expName,psychopyVersion,OS,frameRate,InstrStep2KResp.keys,InstrStep2KResp.rt,Choice2Entr.keys,Choice2Entr.rt,Step2Training.thisRepN,Step2Training.thisTrialN,Step2Training.thisN,Step2Training.thisIndex,Step2Training.ran,Ntrial,PChoice21,PChoice22,WallPaperColor,InstrTotKR.keys,InstrTotKR.rt,Transition,Choice2.keys,Choice2.rt,Reward,TrainingTot.thisRepN,TrainingTot.thisTrialN,TrainingTot.thisN,TrainingTot.thisIndex,TrainingTot.ran,Walk21,Walk22,Walk23,PChoice23,Walk24,PChoice24,Question.thisRepN,Question.thisTrialN,Question.thisN,Question.thisIndex,Question.ran,RepriseTacheKR.keys,RepriseTacheKR.rt,CravingKR.keys,CravingKR.corr,CravingKR.rt,ResistKR.keys,ResistKR.corr,ResistKR.rt,StressKR.keys,StressKR.corr,StressKR.rt,LoopVideoG.thisRepN,LoopVideoG.thisTrialN,LoopVideoG.thisN,LoopVideoG.thisIndex,LoopVideoG.ran,Video,VraieTacheKR.keys,VraieTacheKR.rt,Task1.thisRepN,Task1.thisTrialN,Task1.thisN,Task1.thisIndex,Task1.ran,FinTache1KR.keys,FinTache1KR.rt,FinSession1KR.keys,FinSession1KR.rt
space,1.100925,space,2.16671,e,0.34896,0,0,0,0,1,test,2021-02-17_21h48.23.256,InstructionMarkovVideoG,2020.2.6,MacIntel,60,,,,,,,,,,,,,,,,,,,,,,,,,,,,,,,,,,,,,,,,,,,,,,,,,,,,,,,,,,,,,,,
,,,,i,0.237275,1,0,1,0,1,test,2021-02-17_21h48.23.256,InstructionMarkovVideoG,2020.2.6,MacIntel,60,,,,,,,,,,,,,,,,,,,,,,,,,,,,,,,,,,,,,,,,,,,,,,,,,,,,,,,,,,,,,,,
,,,,e,0.251585,2,0,2,0,1,test,2021-02-17_21h48.23.256,InstructionMarkovVideoG,2020.2.6,MacIntel,60,,,,,,,,,,,,,,,,,,,,,,,,,,,,,,,,,,,,,,,,,,,,,,,,,,,,,,,,,,,,,,,
,,,,i,0.21682,3,0,3,0,1,test,2021-02-17_21h48.23.256,InstructionMarkovVideoG,2020.2.6,MacIntel,60,,,,,,,,,,,,,,,,,,,,,,,,,,,,,,,,,,,,,,,,,,,,,,,,,,,,,,,,,,,,,,,
,,,,e,0.358475,4,0,4,0,1,test,2021-02-17_21h48.23.256,InstructionMarkovVideoG,2020.2.6,MacIntel,60,,,,,,,,,,,,,,,,,,,,,,,,,,,,,,,,,,,,,,,,,,,,,,,,,,,,,,,,,,,,,,,
,,,,i,1.0187,5,0,5,0,1,test,2021-02-17_21h48.23.256,InstructionMarkovVideoG,2020.2.6,MacIntel,60,,,,,,,,,,,,,,,,,,,,,,,,,,,,,,,,,,,,,,,,,,,,,,,,,,,,,,,,,,,,,,,
,,,,e,0.31807,6,0,6,0,1,test,2021-02-17_21h48.23.256,InstructionMarkovVideoG,2020.2.6,MacIntel,60,,,,,,,,,,,,,,,,,,,,,,,,,,,,,,,,,,,,,,,,,,,,,,,,,,,,,,,,,,,,,,,
,,,,i,0.368855,7,0,7,0,1,test,2021-02-17_21h48.23.256,InstructionMarkovVideoG,2020.2.6,MacIntel,60,,,,,,,,,,,,,,,,,,,,,,,,,,,,,,,,,,,,,,,,,,,,,,,,,,,,,,,,,,,,,,,
,,,,e,0.439985,8,0,8,0,1,test,2021-02-17_21h48.23.256,InstructionMarkovVideoG,2020.2.6,MacIntel,60,,,,,,,,,,,,,,,,,,,,,,,,,,,,,,,,,,,,,,,,,,,,,,,,,,,,,,,,,,,,,,,
,,,,i,0.313955,9,0,9,0,1,test,2021-02-17_21h48.23.256,InstructionMarkovVideoG,2020.2.6,MacIntel,60,,,,,,,,,,,,,,,,,,,,,,,,,,,,,,,,,,,,,,,,,,,,,,,,,,,,,,,,,,,,,,,
,,,,,,,,,,,test,2021-02-17_21h48.23.256,InstructionMarkovVideoG,2020.2.6,MacIntel,60,space,3.462505,e,0.55334,0,0,0,0,1,1,0.2,0.8,Green,,,,,,,,,,,,,,,,,,,,,,,,,,,,,,,,,,,,,,,,,,,,,,,,,,
,,,,,,,,,,,test,2021-02-17_21h48.23.256,InstructionMarkovVideoG,2020.2.6,MacIntel,60,,,e,0.441845,0,1,1,1,1,2,0.2,0.8,Green,,,,,,,,,,,,,,,,,,,,,,,,,,,,,,,,,,,,,,,,,,,,,,,,,,
,,,,,,,,,,,test,2021-02-17_21h48.23.256,InstructionMarkovVideoG,2020.2.6,MacIntel,60,,,i,0.713955,0,2,2,2,1,3,0.2,0.8,Green,,,,,,,,,,,,,,,,,,,,,,,,,,,,,,,,,,,,,,,,,,,,,,,,,,
,,,,,,,,,,,test,2021-02-17_21h48.23.256,InstructionMarkovVideoG,2020.2.6,MacIntel,60,,,e,0.30324,0,3,3,3,1,4,0.2,0.8,Green,,,,,,,,,,,,,,,,,,,,,,,,,,,,,,,,,,,,,,,,,,,,,,,,,,
,,,,,,,,,,,test,2021-02-17_21h48.23.256,InstructionMarkovVideoG,2020.2.6,MacIntel,60,,,e,0.31203,0,4,4,4,1,5,0.8,0.2,Green,,,,,,,,,,,,,,,,,,,,,,,,,,,,,,,,,,,,,,,,,,,,,,,,,,
,,,,,,,,,,,test,2021-02-17_21h48.23.256,InstructionMarkovVideoG,2020.2.6,MacIntel,60,,,e,0.29769,0,5,5,5,1,6,0.8,0.2,Blue,,,,,,,,,,,,,,,,,,,,,,,,,,,,,,,,,,,,,,,,,,,,,,,,,,
,,,,,,,,,,,test,2021-02-17_21h48.23.256,InstructionMarkovVideoG,2020.2.6,MacIntel,60,,,i,0.252845,0,6,6,6,1,7,0.8,0.2,Blue,,,,,,,,,,,,,,,,,,,,,,,,,,,,,,,,,,,,,,,,,,,,,,,,,,
,,,,,,,,,,,test,2021-02-17_21h48.23.256,InstructionMarkovVideoG,2020.2.6,MacIntel,60,,,i,0.044975,0,7,7,7,1,8,0.2,0.8,Blue,,,,,,,,,,,,,,,,,,,,,,,,,,,,,,,,,,,,,,,,,,,,,,,,,,
,,,,,,,,,,,test,2021-02-17_21h48.23.256,InstructionMarkovVideoG,2020.2.6,MacIntel,60,,,e,0.0519,0,8,8,8,1,9,0.8,0.2,Blue,,,,,,,,,,,,,,,,,,,,,,,,,,,,,,,,,,,,,,,,,,,,,,,,,,
,,,,,,,,,,,test,2021-02-17_21h48.23.256,InstructionMarkovVideoG,2020.2.6,MacIntel,60,,,i,0.026415,0,9,9,9,1,10,0.8,0.8,Blue,,,,,,,,,,,,,,,,,,,,,,,,,,,,,,,,,,,,,,,,,,,,,,,,,,
,,,,e,0.33142,,,,,,test,2021-02-17_21h48.23.256,InstructionMarkovVideoG,2020.2.6,MacIntel,60,,,,,,,,,,3,0.52,0.44,,space,3.67146,1,e,0.451115,0,0,0,0,2,1,0.02,-0.01,-0.05,0.47,-0.04,0.42,,,,,,,,,,,,,,,,,,,,,,,,,,,,,,,,,
,,,,e,0.31571,,,,,,test,2021-02-17_21h48.23.256,InstructionMarkovVideoG,2020.2.6,MacIntel,60,,,,,,,,,,1,0.5,0.49,,,,1,i,0.33073,0,0,1,1,0,1,0,-0.01,0.02,0.52,0.01,0.51,,,,,,,,,,,,,,,,,,,,,,,,,,,,,,,,,
,,,,e,0.284785,,,,,,test,2021-02-17_21h48.23.256,InstructionMarkovVideoG,2020.2.6,MacIntel,60,,,,,,,,,,7,0.49,0.55,,,,0,e,0.294325,0,0,2,2,6,1,0,0.04,0.03,0.48,-0.02,0.3,,,,,,,,,,,,,,,,,,,,,,,,,,,,,,,,,
,,,,e,0.484075,,,,,,test,2021-02-17_21h48.23.256,InstructionMarkovVideoG,2020.2.6,MacIntel,60,,,,,,,,,,4,0.55,0.42,,,,1,e,0.242645,1,0,3,3,3,1,0.03,-0.02,0,0.47,-0.03,0.39,,,,,,,,,,,,,,,,,,,,,,,,,,,,,,,,,
,,,,i,0.305485,,,,,,test,2021-02-17_21h48.23.256,InstructionMarkovVideoG,2020.2.6,MacIntel,60,,,,,,,,,,5,0.52,0.48,,,,1,i,0.29913,0,0,4,4,4,1,-0.03,0.06,-0.04,0.43,-0.03,0.36,,,,,,,,,,,,,,,,,,,,,,,,,,,,,,,,,
,,,,i,0.3176,,,,,,test,2021-02-17_21h48.23.256,InstructionMarkovVideoG,2020.2.6,MacIntel,60,,,,,,,,,,9,0.45,0.54,,,,1,e,0.334945,0,0,5,5,8,1,-0.06,0.02,0.01,0.48,0,0.27,,,,,,,,,,,,,,,,,,,,,,,,,,,,,,,,,
,,,,e,0.29176,,,,,,test,2021-02-17_21h48.23.256,InstructionMarkovVideoG,2020.2.6,MacIntel,60,,,,,,,,,,8,0.51,0.52,,,,1,i,0.277885,0,0,6,6,7,1,0.02,-0.03,-0.01,0.47,-0.03,0.27,,,,,,,,,,,,,,,,,,,,,,,,,,,,,,,,,
,,,,e,0.28494,,,,,,test,2021-02-17_21h48.23.256,InstructionMarkovVideoG,2020.2.6,MacIntel,60,,,,,,,,,,2,0.5,0.45,,,,1,i,0.26678,0,0,7,7,1,1,0,-0.04,0,0.52,-0.05,0.46,,,,,,,,,,,,,,,,,,,,,,,,,,,,,,,,,
,,,,e,0.31804,,,,,,test,2021-02-17_21h48.23.256,InstructionMarkovVideoG,2020.2.6,MacIntel,60,,,,,,,,,,6,0.49,0.51,,,,1,e,0.25048,0,0,8,8,5,1,-0.03,0.03,0.02,0.45,-0.04,0.32,,,,,,,,,,,,,,,,,,,,,,,,,,,,,,,,,
,,,,i,0.288535,,,,,,test,2021-02-17_21h48.23.256,InstructionMarkovVideoG,2020.2.6,MacIntel,60,,,,,,,,,,10,0.52,0.55,,,,1,e,0.316755,0,0,9,9,9,1,0.07,0.01,-0.01,0.47,-0.01,0.26,,,,,,,,,,,,,,,,,,,,,,,,,,,,,,,,,
,,,,,,,,,,,test,2021-02-17_21h48.23.256,InstructionMarkovVideoG,2020.2.6,MacIntel,60,,,,,,,,,,,,,,,,,,,,,,,,,,,,,,,0,0,0,0,1,,,,,,,,,,,,,,,,,,,,,,,,,,,,
,,,,,,,,,,,test,2021-02-17_21h48.23.256,InstructionMarkovVideoG,2020.2.6,MacIntel,60,,,,,,,,,,,,,,,,,,,,,,,,,,,,,,,,,,,,space,1.89667,5,0,2.131645,5,0,0.24287,5,0,0.219865,0,0,0,7,1,VG8.mp4,,,,,,,,,,,
,,,,,,,,,,,test,2021-02-17_21h48.23.256,InstructionMarkovVideoG,2020.2.6,MacIntel,60,,,,,,,,,,,,,,,,,,,,,,,,,,,,,,,,,,,,,,,,,,,,,,,0,1,1,8,1,VG9.mp4,,,,,,,,,,,
,,,,,,,,,,,test,2021-02-17_21h48.23.256,InstructionMarkovVideoG,2020.2.6,MacIntel,60,,,,,,,,,,,,,,,,,,,,,,,,,,,,,,,,,,,,,,,,,,,,,,,0,2,2,2,1,VG3.mp4,,,,,,,,,,,
,,,,,,,,,,,test,2021-02-17_21h48.23.256,InstructionMarkovVideoG,2020.2.6,MacIntel,60,,,,,,,,,,,,,,,,,,,,,,,,,,,,,,,,,,,,,,,,,,,,,,,0,3,3,9,1,VG10.mp4,,,,,,,,,,,
,,,,,,,,,,,test,2021-02-17_21h48.23.256,InstructionMarkovVideoG,2020.2.6,MacIntel,60,,,,,,,,,,,,,,,,,,,,,,,,,,,,,,,,,,,,,,,,,,,,,,,0,4,4,6,1,VG7.mp4,,,,,,,,,,,
,,,,,,,,,,,test,2021-02-17_21h48.23.256,InstructionMarkovVideoG,2020.2.6,MacIntel,60,,,,,,,,,,,,,,,,,,,,,,,,,,,,,,,,,,,,,,,,,,,,,,,0,5,5,5,1,VG6.mp4,,,,,,,,,,,
,,,,,,,,,,,test,2021-02-17_21h48.23.256,InstructionMarkovVideoG,2020.2.6,MacIntel,60,,,,,,,,,,,,,,,,,,,,,,,,,,,,,,,,,,,,,,,,,,,,,,,0,6,6,1,1,VG2.mp4,,,,,,,,,,,
,,,,,,,,,,,test,2021-02-17_21h48.23.256,InstructionMarkovVideoG,2020.2.6,MacIntel,60,,,,,,,,,,,,,,,,,,,,,,,,,,,,,,,,,,,,,,,,,,,,,,,0,7,7,4,1,VG5.mp4,,,,,,,,,,,
,,,,,,,,,,,test,2021-02-17_21h48.23.256,InstructionMarkovVideoG,2020.2.6,MacIntel,60,,,,,,,,,,,,,,,,,,,,,,,,,,,,,,,,,,,,,,,,,,,,,,,0,8,8,0,1,VG1.mp4,,,,,,,,,,,
,,,,,,,,,,,test,2021-02-17_21h48.23.256,InstructionMarkovVideoG,2020.2.6,MacIntel,60,,,,,,,,,,,,,,,,,,,,,,,,,,,,,,,,,,,,,,,,,,,,,,,0,9,9,3,1,VG4.mp4,,,,,,,,,,,
,,,,e,1.018105,,,,,,test,2021-02-17_21h48.23.256,InstructionMarkovVideoG,2020.2.6,MacIntel,60,,,,,,,,,,70,0.66,0.51,,,,0,i,0.3159,0,,,,,,0.04,0.01,-0.03,0.52,0.02,0.46,,,,,,,,5,0,2.767495,5,0,0.19942,5,0,0.217215,,,,,,,space,10.531635,0,0,0,69,1,,,,
,,,,i,0.300295,,,,,,test,2021-02-17_21h48.23.256,InstructionMarkovVideoG,2020.2.6,MacIntel,60,,,,,,,,,,112,0.64,0.63,,,,1,e,0.251775,1,,,,,,-0.02,-0.03,-0.01,0.34,-0.02,0.39,,,,,,,,,,,,,,,,,,,,,,,,,0,1,1,111,1,,,,
,,,,i,0.35147,,,,,,test,2021-02-17_21h48.23.256,InstructionMarkovVideoG,2020.2.6,MacIntel,60,,,,,,,,,,148,0.59,0.71,,,,0,i,0.44576,1,,,,,,0.03,-0.01,-0.02,0.56,0.01,0.31,,,,,,,,,,,,,,,,,,,,,,,,,0,2,2,147,1,,,,
,,,,e,0.300375,,,,,,test,2021-02-17_21h48.23.256,InstructionMarkovVideoG,2020.2.6,MacIntel,60,,,,,,,,,,115,0.68,0.63,,,,1,e,0.66715,1,,,,,,0,0.03,0.02,0.36,0.02,0.37,,,,,,,,,,,,,,,,,,,,,,,,,0,3,3,114,1,,,,
,,,,e,0.317365,,,,,,test,2021-02-17_21h48.23.256,InstructionMarkovVideoG,2020.2.6,MacIntel,60,,,,,,,,,,7,0.61,0.55,,,,1,i,0.26775,1,,,,,,0.04,0,0,0.56,0.06,0.65,,,,,,,,,,,,,,,,,,,,,,,,,0,4,4,6,1,,,,
,,,,e,0.345315,,,,,,test,2021-02-17_21h48.23.256,InstructionMarkovVideoG,2020.2.6,MacIntel,60,,,,,,,,,,11,0.66,0.65,,,,0,e,0.434775,0,,,,,,-0.02,0.01,0.01,0.61,-0.03,0.67,,,,,,,,,,,,,,,,,,,,,,,,,0,5,5,10,1,,,,
,,,,e,0.318175,,,,,,test,2021-02-17_21h48.23.256,InstructionMarkovVideoG,2020.2.6,MacIntel,60,,,,,,,,,,34,0.7,0.6,,,,0,i,0.516815,1,,,,,,0.01,-0.01,0,0.62,0.01,0.74,,,,,,,,,,,,,,,,,,,,,,,,,0,6,6,33,1,,,,
,,,,i,0.251475,,,,,,test,2021-02-17_21h48.23.256,InstructionMarkovVideoG,2020.2.6,MacIntel,60,,,,,,,,,,113,0.65,0.58,,,,0,i,1.284165,1,,,,,,0.01,-0.05,0.01,0.35,0.01,0.4,,,,,,,,,,,,,,,,,,,,,,,,,0,7,7,112,1,,,,
,,,,i,0.367275,,,,,,test,2021-02-17_21h48.23.256,InstructionMarkovVideoG,2020.2.6,MacIntel,60,,,,,,,,,,48,0.72,0.62,,,,0,e,0.285755,1,,,,,,0,-0.01,0,0.59,0.04,0.68,,,,,,,,,,,,,,,,,,,,,,,,,0,8,8,47,1,,,,
,,,,e,0.31795,,,,,,test,2021-02-17_21h48.23.256,InstructionMarkovVideoG,2020.2.6,MacIntel,60,,,,,,,,,,103,0.66,0.66,,,,1,i,0.35154,0,,,,,,-0.02,0.05,0,0.37,0.02,0.48,,,,,,,,,,,,,,,,,,,,,,,,,0,9,9,102,1,,,,
,,,,e,0.401065,,,,,,test,2021-02-17_21h48.23.256,InstructionMarkovVideoG,2020.2.6,MacIntel,60,,,,,,,,,,196,0.39,0.74,,,,0,i,0.36739,0,,,,,,-0.02,0.01,0,0.26,-0.01,0.25,,,,,,,,,,,,,,,,,,,,,,,,,0,10,10,195,1,,,,
,,,,i,0.301255,,,,,,test,2021-02-17_21h48.23.256,InstructionMarkovVideoG,2020.2.6,MacIntel,60,,,,,,,,,,156,0.57,0.72,,,,1,e,0.416445,1,,,,,,-0.03,0.02,0.02,0.5,-0.02,0.28,,,,,,,,,,,,,,,,,,,,,,,,,0,11,11,155,1,,,,
,,,,i,0.286285,,,,,,test,2021-02-17_21h48.23.256,InstructionMarkovVideoG,2020.2.6,MacIntel,60,,,,,,,,,,92,0.65,0.54,,,,1,e,0.418325,0,,,,,,0,-0.02,-0.03,0.29,0.03,0.56,,,,,,,,,,,,,,,,,,,,,,,,,0,12,12,91,1,,,,
,,,,e,0.387435,,,,,,test,2021-02-17_21h48.23.256,InstructionMarkovVideoG,2020.2.6,MacIntel,60,,,,,,,,,,46,0.74,0.62,,,,1,i,0.383755,0,,,,,,0.02,-0.03,0.01,0.61,-0.05,0.68,,,,,,,,,,,,,,,,,,,,,,,,,0,13,13,45,1,,,,
,,,,e,0.43443,,,,,,test,2021-02-17_21h48.23.256,InstructionMarkovVideoG,2020.2.6,MacIntel,60,,,,,,,,,,80,0.73,0.53,,,,1,i,0.599545,1,,,,,,0.01,0.01,-0.01,0.41,-0.02,0.53,,,,,,,,,,,,,,,,,,,,,,,,,0,14,14,79,1,,,,
,,,,e,0.401335,,,,,,test,2021-02-17_21h48.23.256,InstructionMarkovVideoG,2020.2.6,MacIntel,60,,,,,,,,,,62,0.58,0.59,,,,0,i,0.318615,0,,,,,,0,0.02,-0.02,0.51,-0.02,0.49,,,,,,,,,,,,,,,,,,,,,,,,,0,15,15,61,1,,,,
,,,,e,0.367365,,,,,,test,2021-02-17_21h48.23.256,InstructionMarkovVideoG,2020.2.6,MacIntel,60,,,,,,,,,,142,0.7,0.74,,,,1,i,0.43393,1,,,,,,0,0.04,0.06,0.58,-0.01,0.25,,,,,,,,,,,,,,,,,,,,,,,,,0,16,16,141,1,,,,
,,,,e,0.33411,,,,,,test,2021-02-17_21h48.23.256,InstructionMarkovVideoG,2020.2.6,MacIntel,60,,,,,,,,,,147,0.56,0.72,,,,1,i,0.384185,1,,,,,,-0.05,-0.03,-0.02,0.58,0,0.3,,,,,,,,,,,,,,,,,,,,,,,,,0,17,17,146,1,,,,
,,,,e,0.60183,,,,,,test,2021-02-17_21h48.23.256,InstructionMarkovVideoG,2020.2.6,MacIntel,60,,,,,,,,,,121,0.71,0.69,,,,1,i,0.38656,1,,,,,,0.02,-0.02,-0.04,0.39,0.01,0.28,,,,,,,,,,,,,,,,,,,,,,,,,0,18,18,120,1,,,,
,,,,e,0.317535,,,,,,test,2021-02-17_21h48.23.256,InstructionMarkovVideoG,2020.2.6,MacIntel,60,,,,,,,,,,63,0.56,0.58,,,,1,i,0.46796,0,,,,,,-0.02,-0.01,0.02,0.53,-0.03,0.46,,,,,,,,,,,,,,,,,,,,,,,,,0,19,19,62,1,,,,
,,,,i,1.5682,,,,,,test,2021-02-17_21h48.23.256,InstructionMarkovVideoG,2020.2.6,MacIntel,60,,,,,,,,,,134,0.71,0.72,,,,1,e,0.800355,0,,,,,,-0.03,0.02,0.07,0.46,-0.01,0.3,,,,,,,,,,,,,,,,,,,,,,,,,0,20,20,133,1,,,,
,,,,e,0.184955,,,,,,test,2021-02-17_21h48.23.256,InstructionMarkovVideoG,2020.2.6,MacIntel,60,,,,,,,,,,133,0.74,0.74,,,,1,i,0.25025,1,,,,,,0.01,0.02,0,0.39,0.02,0.31,,,,,,,,,,,,,,,,,,,,,,,,,0,21,21,132,1,,,,
,,,,i,0.36823,,,,,,test,2021-02-17_21h48.23.256,InstructionMarkovVideoG,2020.2.6,MacIntel,60,,,,,,,,,,44,0.69,0.62,,,,1,i,0.33373,1,,,,,,-0.02,0.01,0.02,0.59,0,0.69,,,,,,,,,,,,,,,,,,,,,,,,,0,22,22,43,1,,,,
,,,,e,1.234215,,,,,,test,2021-02-17_21h48.23.256,InstructionMarkovVideoG,2020.2.6,MacIntel,60,,,,,,,,,,174,0.49,0.73,,,,1,i,0.334045,1,,,,,,-0.02,0,-0.01,0.42,-0.02,0.29,,,,,,,,,,,,,,,,,,,,,,,,,0,23,23,173,1,,,,
,,,,i,0.434635,,,,,,test,2021-02-17_21h48.23.256,InstructionMarkovVideoG,2020.2.6,MacIntel,60,,,,,,,,,,163,0.66,0.69,,,,1,e,0.40047,1,,,,,,0.01,0,-0.04,0.51,0.01,0.36,,,,,,,,,,,,,,,,,,,,,,,,,0,24,24,162,1,,,,
,,,,i,0.35077,,,,,,test,2021-02-17_21h48.23.256,InstructionMarkovVideoG,2020.2.6,MacIntel,60,,,,,,,,,,35,0.73,0.61,,,,0,e,0.283415,1,,,,,,0.03,0.01,-0.02,0.6,-0.02,0.72,,,,,,,,,,,,,,,,,,,,,,,,,0,25,25,34,1,,,,
,,,,e,0.301175,,,,,,test,2021-02-17_21h48.23.256,InstructionMarkovVideoG,2020.2.6,MacIntel,60,,,,,,,,,,52,0.62,0.62,,,,1,i,0.366885,0,,,,,,0,-0.04,-0.01,0.58,-0.04,0.63,,,,,,,,,,,,,,,,,,,,,,,,,0,26,26,51,1,,,,
,,,,e,0.616935,,,,,,test,2021-02-17_21h48.23.256,InstructionMarkovVideoG,2020.2.6,MacIntel,60,,,,,,,,,,4,0.59,0.54,,,,1,e,0.451,0,,,,,,-0.01,0.03,0,0.53,0.04,0.57,,,,,,,,,,,,,,,,,,,,,,,,,0,27,27,3,1,,,,
,,,,e,0.301305,,,,,,test,2021-02-17_21h48.23.256,InstructionMarkovVideoG,2020.2.6,MacIntel,60,,,,,,,,,,153,0.62,0.7,,,,0,i,0.48477,0,,,,,,-0.01,0.02,0.03,0.52,0.01,0.27,,,,,,,,,,,,,,,,,,,,,,,,,0,28,28,152,1,,,,
,,,,e,0.384155,,,,,,test,2021-02-17_21h48.23.256,InstructionMarkovVideoG,2020.2.6,MacIntel,60,,,,,,,,,,78,0.74,0.54,,,,1,e,0.33451,0,,,,,,0.04,0.01,-0.03,0.42,-0.02,0.52,,,,,,,,,,,,,,,,,,,,,,,,,0,29,29,77,1,,,,
,,,,e,0.1681,,,,,,test,2021-02-17_21h48.23.256,InstructionMarkovVideoG,2020.2.6,MacIntel,60,,,,,,,,,,105,0.65,0.71,,,,0,i,0.31707,0,,,,,,0,0.01,0.07,0.42,-0.03,0.4,,,,,,,,,,,,,,,,,,,,,,,,,0,30,30,104,1,,,,
,,,,i,0.287785,,,,,,test,2021-02-17_21h48.23.256,InstructionMarkovVideoG,2020.2.6,MacIntel,60,,,,,,,,,,72,0.74,0.53,,,,1,i,0.30109,0,,,,,,0.05,0.01,0,0.51,-0.02,0.47,,,,,,,,,,,,,,,,,,,,,,,,,0,31,31,71,1,,,,
,,,,i,0.320345,,,,,,test,2021-02-17_21h48.23.256,InstructionMarkovVideoG,2020.2.6,MacIntel,60,,,,,,,,,,61,0.58,0.57,,,,1,i,0.23308,1,,,,,,-0.03,0.02,0.02,0.53,0.02,0.51,,,,,,,,,,,,,,,,,,,,,,,,,0,32,32,60,1,,,,
,,,,e,0.35173,,,,,,test,2021-02-17_21h48.23.256,InstructionMarkovVideoG,2020.2.6,MacIntel,60,,,,,,,,,,83,0.69,0.5,,,,0,i,0.550575,0,,,,,,0.02,-0.01,0.03,0.37,0,0.49,,,,,,,,,,,,,,,,,,,,,,,,,0,33,33,82,1,,,,
,,,,e,0.618015,,,,,,test,2021-02-17_21h48.23.256,InstructionMarkovVideoG,2020.2.6,MacIntel,60,,,,,,,,,,75,0.73,0.57,,,,1,i,0.333185,0,,,,,,0.02,0.06,0.04,0.48,0.01,0.5,,,,,,,,,,,,,,,,,,,,,,,,,0,34,34,74,1,,,,
,,,,i,0.13488,,,,,,test,2021-02-17_21h48.23.256,InstructionMarkovVideoG,2020.2.6,MacIntel,60,,,,,,,,,,172,0.52,0.71,,,,0,e,0.366625,0,,,,,,-0.02,0.02,0.02,0.45,0.03,0.29,,,,,,,,,,,,,,,,,,,,,,,,,0,35,35,171,1,,,,
,,,,e,0.401555,,,,,,test,2021-02-17_21h48.23.256,InstructionMarkovVideoG,2020.2.6,MacIntel,60,,,,,,,,,,67,0.59,0.54,,,,1,i,0.316635,1,,,,,,0.02,-0.03,0.01,0.53,-0.03,0.46,,,,,,,,,,,,,,,,,,,,,,,,,0,36,36,66,1,,,,
,,,,i,0.41831,,,,,,test,2021-02-17_21h48.23.256,InstructionMarkovVideoG,2020.2.6,MacIntel,60,,,,,,,,,,43,0.71,0.61,,,,1,e,0.349815,1,,,,,,-0.01,-0.03,-0.02,0.57,0.05,0.69,,,,,,,,,,,,,,,,,,,,,,,,,0,37,37,42,1,,,,
,,,,i,0.485255,,,,,,test,2021-02-17_21h48.23.256,InstructionMarkovVideoG,2020.2.6,MacIntel,60,,,,,,,,,,76,0.73,0.56,,,,1,e,0.33509,1,,,,,,0,-0.01,-0.03,0.45,0.02,0.52,,,,,,,,,,,,,,,,,,,,,,,,,0,38,38,75,1,,,,
,,,,e,0.40063,,,,,,test,2021-02-17_21h48.23.256,InstructionMarkovVideoG,2020.2.6,MacIntel,60,,,,,,,,,,42,0.72,0.64,,,,1,i,0.23457,1,,,,,,0.02,0,-0.02,0.59,0.06,0.64,,,,,,,,,,,,,,,,,,,,,,,,,0,39,39,41,1,,,,
,,,,i,0.284725,,,,,,test,2021-02-17_21h48.23.256,InstructionMarkovVideoG,2020.2.6,MacIntel,60,,,,,,,,,,150,0.56,0.69,,,,1,e,0.41465,0,,,,,,-0.02,0.04,-0.02,0.51,-0.01,0.26,,,,,,,,,,,,,,,,,,,,,,,,,0,40,40,149,1,,,,
,,,,e,0.53662,,,,,,test,2021-02-17_21h48.23.256,InstructionMarkovVideoG,2020.2.6,MacIntel,60,,,,,,,,,,99,0.68,0.51,,,,0,i,0.315785,1,,,,,,-0.01,-0.01,0.04,0.35,-0.03,0.49,,,,,,,,,,,,,,,,,,,,,,,,,0,41,41,98,1,,,,
,,,,i,0.281455,,,,,,test,2021-02-17_21h48.23.256,InstructionMarkovVideoG,2020.2.6,MacIntel,60,,,,,,,,,,139,0.73,0.74,,,,1,e,0.23415,1,,,,,,0.01,0.05,0.02,0.49,0.01,0.29,,,,,,,,,,,,,,,,,,,,,,,,,0,42,42,138,1,,,,
,,,,i,0.251315,,,,,,test,2021-02-17_21h48.23.256,InstructionMarkovVideoG,2020.2.6,MacIntel,60,,,,,,,,,,41,0.7,0.64,,,,1,e,0.26702,0,,,,,,0,0.04,0,0.61,-0.03,0.7,,,,,,,,,,,,,,,,,,,,,,,,,0,43,43,40,1,,,,
,,,,e,0.35152,,,,,,test,2021-02-17_21h48.23.256,InstructionMarkovVideoG,2020.2.6,MacIntel,60,,,,,,,,,,114,0.68,0.6,,,,1,i,0.03421,1,,,,,,0.03,0.02,-0.01,0.34,-0.05,0.35,,,,,,,,,,,,,,,,,,,,,,,,,0,44,44,113,1,,,,
,,,,i,0.38524,,,,,,test,2021-02-17_21h48.23.256,InstructionMarkovVideoG,2020.2.6,MacIntel,60,,,,,,,,,,32,0.71,0.6,,,,1,e,0.3838,1,,,,,,-0.02,-0.02,0.01,0.62,0.01,0.7,,,,,,,,,,,,,,,,,,,,,,,,,0,45,45,31,1,,,,
,,,,i,0.321265,,,,,,test,2021-02-17_21h48.23.256,InstructionMarkovVideoG,2020.2.6,MacIntel,60,,,,,,,,,,10,0.68,0.64,,,,1,e,0.43363,0,,,,,,0.01,0.05,0,0.6,0.04,0.7,,,,,,,,,,,,,,,,,,,,,,,,,0,46,46,9,1,,,,
,,,,e,0.53497,,,,,,test,2021-02-17_21h48.23.256,InstructionMarkovVideoG,2020.2.6,MacIntel,60,,,,,,,,,,87,0.7,0.53,,,,0,e,0.2351,1,,,,,,-0.03,0.04,0,0.35,0.02,0.48,,,,,,,,,,,,,,,,,,,,,,,,,0,47,47,86,1,,,,
,,,,e,0.318335,,,,,,test,2021-02-17_21h48.23.256,InstructionMarkovVideoG,2020.2.6,MacIntel,60,,,,,,,,,,79,0.72,0.52,,,,1,e,0.263335,1,,,,,,0.02,-0.02,0,0.42,0.03,0.55,,,,,,,,,,,,,,,,,,,,,,,,,0,48,48,78,1,,,,
,,,,e,0.21929,,,,,,test,2021-02-17_21h48.23.256,InstructionMarkovVideoG,2020.2.6,MacIntel,60,,,,,,,,,,157,0.58,0.72,,,,1,e,0.383515,1,,,,,,0.01,0,0,0.5,-0.01,0.27,,,,,,,,,,,,,,,,,,,,,,,,,0,49,49,156,1,,,,
,,,,e,0.349985,,,,,,test,2021-02-17_21h48.23.256,InstructionMarkovVideoG,2020.2.6,MacIntel,60,,,,,,,,,,191,0.36,0.74,,,,1,e,0.283435,0,,,,,,-0.02,0.05,-0.03,0.27,-0.01,0.27,,,,,,,,,,,,,,,,,,,,,,,,,0,50,50,190,1,,,,
,,,,e,0.384545,,,,,,test,2021-02-17_21h48.23.256,InstructionMarkovVideoG,2020.2.6,MacIntel,60,,,,,,,,,,178,0.46,0.68,,,,1,i,0.36673,0,,,,,,-0.03,0,0.03,0.42,-0.04,0.31,,,,,,,,,,,,,,,,,,,,,,,,,0,51,51,177,1,,,,
,,,,e,0.35185,,,,,,test,2021-02-17_21h48.23.256,InstructionMarkovVideoG,2020.2.6,MacIntel,60,,,,,,,,,,189,0.41,0.67,,,,1,e,0.263445,1,,,,,,-0.02,0.02,-0.02,0.29,-0.02,0.28,,,,,,,,,,,,,,,,,,,,,,,,,0,52,52,188,1,,,,
,,,,i,0.300735,,,,,,test,2021-02-17_21h48.23.256,InstructionMarkovVideoG,2020.2.6,MacIntel,60,,,,,,,,,,26,0.73,0.63,,,,1,i,0.383405,1,,,,,,-0.02,0.02,0.04,0.61,0,0.71,,,,,,,,,,,,,,,,,,,,,,,,,0,53,53,25,1,,,,
,,,,i,0.334735,,,,,,test,2021-02-17_21h48.23.256,InstructionMarkovVideoG,2020.2.6,MacIntel,60,,,,,,,,,,132,0.73,0.72,,,,1,i,0.450315,0,,,,,,0.01,-0.01,0,0.39,0.02,0.29,,,,,,,,,,,,,,,,,,,,,,,,,0,54,54,131,1,,,,
,,,,i,0.351955,,,,,,test,2021-02-17_21h48.23.256,InstructionMarkovVideoG,2020.2.6,MacIntel,60,,,,,,,,,,185,0.45,0.7,,,,1,e,0.23414,0,,,,,,0,0,-0.02,0.32,0.01,0.26,,,,,,,,,,,,,,,,,,,,,,,,,0,55,55,184,1,,,,
,,,,e,0.238235,,,,,,test,2021-02-17_21h48.23.256,InstructionMarkovVideoG,2020.2.6,MacIntel,60,,,,,,,,,,57,0.61,0.59,,,,1,e,0.23397,0,,,,,,-0.01,-0.02,0.02,0.6,0.01,0.56,,,,,,,,,,,,,,,,,,,,,,,,,0,56,56,56,1,,,,
,,,,e,0.11813,,,,,,test,2021-02-17_21h48.23.256,InstructionMarkovVideoG,2020.2.6,MacIntel,60,,,,,,,,,,8,0.65,0.56,,,,1,i,0.26631,0,,,,,,0.04,0.01,0.06,0.62,-0.01,0.64,,,,,,,,,,,,,,,,,,,,,,,,,0,57,57,7,1,,,,
,,,,e,0.337705,,,,,,test,2021-02-17_21h48.23.256,InstructionMarkovVideoG,2020.2.6,MacIntel,60,,,,,,,,,,71,0.69,0.52,,,,0,e,0.284805,1,,,,,,0.03,0.01,-0.01,0.51,0.03,0.49,,,,,,,,,,,,,,,,,,,,,,,,,0,58,58,70,1,,,,
,,,,i,0.452445,,,,,,test,2021-02-17_21h48.23.256,InstructionMarkovVideoG,2020.2.6,MacIntel,60,,,,,,,,,,100,0.69,0.58,,,,1,e,0.65081,0,,,,,,0.01,0.07,-0.01,0.34,0.01,0.5,,,,,,,,,,,,,,,,,,,,,,,,,0,59,59,99,1,,,,
,,,,e,0.36833,,,,,,test,2021-02-17_21h48.23.256,InstructionMarkovVideoG,2020.2.6,MacIntel,60,,,,,,,,,,155,0.6,0.7,,,,1,i,0.084645,0,,,,,,0.01,0.02,0,0.48,-0.04,0.3,,,,,,,,,,,,,,,,,,,,,,,,,0,60,60,154,1,,,,
,,,,e,0.45101,,,,,,test,2021-02-17_21h48.23.256,InstructionMarkovVideoG,2020.2.6,MacIntel,60,,,,,,,,,,5,0.58,0.55,,,,1,i,0.39956,1,,,,,,-0.01,0.01,0.02,0.55,0.02,0.59,,,,,,,,,,,,,,,,,,,,,,,,,0,61,61,4,1,,,,
,,,,e,0.517495,,,,,,test,2021-02-17_21h48.23.256,InstructionMarkovVideoG,2020.2.6,MacIntel,60,,,,,,,,,,31,0.73,0.62,,,,1,i,0.283555,1,,,,,,0.02,0,-0.03,0.61,-0.01,0.69,,,,,,,,,,,,,,,,,,,,,,,,,0,62,62,30,1,,,,
,,,,e,0.386605,,,,,,test,2021-02-17_21h48.23.256,InstructionMarkovVideoG,2020.2.6,MacIntel,60,,,,,,,,,,170,0.55,0.67,,,,0,i,0.26725,0,,,,,,-0.05,0.04,0,0.44,-0.01,0.28,,,,,,,,,,,,,,,,,,,,,,,,,0,63,63,169,1,,,,
,,,,i,0.35287,,,,,,test,2021-02-17_21h48.23.256,InstructionMarkovVideoG,2020.2.6,MacIntel,60,,,,,,,,,,98,0.69,0.52,,,,1,e,0.42958,0,,,,,,0.03,-0.04,0,0.31,-0.04,0.52,,,,,,,,,,,,,,,,,,,,,,,,,0,64,64,97,1,,,,
,,,,i,0.21419,,,,,,test,2021-02-17_21h48.23.256,InstructionMarkovVideoG,2020.2.6,MacIntel,60,,,,,,,,,,77,0.7,0.53,,,,1,i,0.250475,0,,,,,,0.03,-0.03,0,0.45,0.02,0.54,,,,,,,,,,,,,,,,,,,,,,,,,0,65,65,76,1,,,,
,,,,e,0.382455,,,,,,test,2021-02-17_21h48.23.256,InstructionMarkovVideoG,2020.2.6,MacIntel,60,,,,,,,,,,37,0.68,0.62,,,,1,i,0.31745,1,,,,,,0,0.04,-0.03,0.57,0.01,0.74,,,,,,,,,,,,,,,,,,,,,,,,,0,66,66,36,1,,,,
,,,,i,0.1516,,,,,,test,2021-02-17_21h48.23.256,InstructionMarkovVideoG,2020.2.6,MacIntel,60,,,,,,,,,,89,0.69,0.56,,,,0,e,0.380305,0,,,,,,-0.03,0.01,0.02,0.35,-0.03,0.45,,,,,,,,,,,,,,,,,,,,,,,,,0,67,67,88,1,,,,
,,,,e,0.05436,,,,,,test,2021-02-17_21h48.23.256,InstructionMarkovVideoG,2020.2.6,MacIntel,60,,,,,,,,,,126,0.66,0.72,,,,1,i,0.349785,1,,,,,,0,-0.01,0.01,0.39,-0.02,0.35,,,,,,,,,,,,,,,,,,,,,,,,,0,68,68,125,1,,,,
,,,,e,0.151995,,,,,,test,2021-02-17_21h48.23.256,InstructionMarkovVideoG,2020.2.6,MacIntel,60,,,,,,,,,,59,0.6,0.55,,,,1,i,0.08207,0,,,,,,0.01,-0.04,-0.03,0.54,-0.03,0.49,,,,,,,,,,,,,,,,,,,,,,,,,0,69,69,58,1,,,,
,,,,i,0.384355,,,,,,test,2021-02-17_21h48.23.256,InstructionMarkovVideoG,2020.2.6,MacIntel,60,,,,,,,,,,56,0.62,0.61,,,,1,e,0.249845,0,,,,,,0,0,0.01,0.58,-0.03,0.55,,,,,,,,,,,,,,,,,,,,,,,,,0,70,70,55,1,,,,
,,,,i,0.119385,,,,,,test,2021-02-17_21h48.23.256,InstructionMarkovVideoG,2020.2.6,MacIntel,60,,,,,,,,,,55,0.62,0.61,,,,1,e,0.282695,0,,,,,,0.02,-0.03,0.03,0.57,-0.02,0.58,,,,,,,,,,,,,,,,,,,,,,,,,0,71,71,54,1,,,,
,,,,e,0.28616,,,,,,test,2021-02-17_21h48.23.256,InstructionMarkovVideoG,2020.2.6,MacIntel,60,,,,,,,,,,54,0.6,0.64,,,,1,e,0.332845,1,,,,,,-0.02,0.02,-0.04,0.54,-0.02,0.6,,,,,,,,,,,,,,,,,,,,,,,,,0,72,72,53,1,,,,
,,,,e,0.303915,,,,,,test,2021-02-17_21h48.23.256,InstructionMarkovVideoG,2020.2.6,MacIntel,60,,,,,,,,,,144,0.66,0.74,,,,1,e,0.31661,1,,,,,,-0.02,0.03,0,0.61,0.01,0.27,,,,,,,,,,,,,,,,,,,,,,,,,0,73,73,143,1,,,,
,,,,e,0.334055,,,,,,test,2021-02-17_21h48.23.256,InstructionMarkovVideoG,2020.2.6,MacIntel,60,,,,,,,,,,165,0.63,0.68,,,,0,i,0.367845,0,,,,,,0,-0.01,0,0.48,-0.06,0.27,,,,,,,,,,,,,,,,,,,,,,,,,0,74,74,164,1,,,,
,,,,e,0.28472,,,,,,test,2021-02-17_21h48.23.256,InstructionMarkovVideoG,2020.2.6,MacIntel,60,,,,,,,,,,140,0.7,0.72,,,,1,e,0.563375,1,,,,,,0.03,-0.02,0.01,0.5,-0.02,0.27,,,,,,,,,,,,,,,,,,,,,,,,,0,75,75,139,1,,,,
,,,,e,0.55088,,,,,,test,2021-02-17_21h48.23.256,InstructionMarkovVideoG,2020.2.6,MacIntel,60,,,,,,,,,,161,0.62,0.7,,,,0,i,0.596445,0,,,,,,0,-0.02,-0.04,0.51,0,0.32,,,,,,,,,,,,,,,,,,,,,,,,,0,76,76,160,1,,,,
,,,,i,0.31829,,,,,,test,2021-02-17_21h48.23.256,InstructionMarkovVideoG,2020.2.6,MacIntel,60,,,,,,,,,,192,0.36,0.74,,,,1,i,0.70027,0,,,,,,0,0,-0.02,0.25,0.01,0.28,,,,,,,,,,,,,,,,,,,,,,,,,0,77,77,191,1,,,,
,,,,i,0.28721,,,,,,test,2021-02-17_21h48.23.256,InstructionMarkovVideoG,2020.2.6,MacIntel,60,,,,,,,,,,38,0.7,0.62,,,,0,i,0.61686,1,,,,,,0.02,0,0.02,0.59,0.04,0.7,,,,,,,,,,,,,,,,,,,,,,,,,0,78,78,37,1,,,,
,,,,i,0.351245,,,,,,test,2021-02-17_21h48.23.256,InstructionMarkovVideoG,2020.2.6,MacIntel,60,,,,,,,,,,135,0.73,0.72,,,,1,e,0.40001,0,,,,,,0.02,0,-0.03,0.43,-0.01,0.29,,,,,,,,,,,,,,,,,,,,,,,,,0,79,79,134,1,,,,
,,,,e,0.085575,,,,,,test,2021-02-17_21h48.23.256,InstructionMarkovVideoG,2020.2.6,MacIntel,60,,,,,,,,,,190,0.38,0.69,,,,1,e,0.50025,1,,,,,,-0.03,0.02,0.01,0.3,0,0.28,,,,,,,,,,,,,,,,,,,,,,,,,0,80,80,189,1,,,,
,,,,e,0.368415,,,,,,test,2021-02-17_21h48.23.256,InstructionMarkovVideoG,2020.2.6,MacIntel,60,,,,,,,,,,39,0.7,0.62,,,,0,i,0.43265,1,,,,,,0,0,0.02,0.61,0.03,0.73,,,,,,,,,,,,,,,,,,,,,,,,,0,81,81,38,1,,,,
,,,,e,0.37111,,,,,,test,2021-02-17_21h48.23.256,InstructionMarkovVideoG,2020.2.6,MacIntel,60,,,,,,,,,,2,0.55,0.48,,,,1,e,0.317075,1,,,,,,0,-0.03,0.01,0.52,0.01,0.52,,,,,,,,,,,,,,,,,,,,,,,,,0,82,82,1,1,,,,
,,,,e,0.302155,,,,,,test,2021-02-17_21h48.23.256,InstructionMarkovVideoG,2020.2.6,MacIntel,60,,,,,,,,,,47,0.72,0.63,,,,0,e,0.38294,1,,,,,,0.02,0.01,-0.02,0.59,-0.04,0.64,,,,,,,,,,,,,,,,,,,,,,,,,0,83,83,46,1,,,,
,,,,e,0.284605,,,,,,test,2021-02-17_21h48.23.256,InstructionMarkovVideoG,2020.2.6,MacIntel,60,,,,,,,,,,184,0.45,0.7,,,,0,i,0.317065,0,,,,,,0,0,-0.02,0.34,-0.03,0.25,,,,,,,,,,,,,,,,,,,,,,,,,0,84,84,183,1,,,,
,,,,i,0.318165,,,,,,test,2021-02-17_21h48.23.256,InstructionMarkovVideoG,2020.2.6,MacIntel,60,,,,,,,,,,29,0.71,0.62,,,,0,i,0.32999,1,,,,,,0.01,-0.02,0,0.59,0,0.69,,,,,,,,,,,,,,,,,,,,,,,,,0,85,85,28,1,,,,
,,,,i,0.42199,,,,,,test,2021-02-17_21h48.23.256,InstructionMarkovVideoG,2020.2.6,MacIntel,60,,,,,,,,,,159,0.63,0.74,,,,1,i,0.40074,1,,,,,,0.03,0.01,-0.02,0.52,0.06,0.35,,,,,,,,,,,,,,,,,,,,,,,,,0,86,86,158,1,,,,
,,,,e,0.06771,,,,,,test,2021-02-17_21h48.23.256,InstructionMarkovVideoG,2020.2.6,MacIntel,60,,,,,,,,,,151,0.61,0.7,,,,1,e,0.333265,0,,,,,,0.05,0.01,-0.01,0.5,-0.01,0.25,,,,,,,,,,,,,,,,,,,,,,,,,0,87,87,150,1,,,,
,,,,e,0.38416,,,,,,test,2021-02-17_21h48.23.256,InstructionMarkovVideoG,2020.2.6,MacIntel,60,,,,,,,,,,25,0.75,0.61,,,,1,i,0.333465,0,,,,,,0.04,-0.02,0.02,0.57,0,0.71,,,,,,,,,,,,,,,,,,,,,,,,,0,88,88,24,1,,,,
,,,,e,0.301305,,,,,,test,2021-02-17_21h48.23.256,InstructionMarkovVideoG,2020.2.6,MacIntel,60,,,,,,,,,,107,0.64,0.71,,,,1,e,0.346565,1,,,,,,-0.01,-0.02,0,0.39,-0.02,0.41,,,,,,,,,,,,,,,,,,,,,,,,,0,89,89,106,1,,,,
,,,,i,0.434245,,,,,,test,2021-02-17_21h48.23.256,InstructionMarkovVideoG,2020.2.6,MacIntel,60,,,,,,,,,,16,0.66,0.63,,,,1,i,0.266375,1,,,,,,0.01,-0.03,-0.02,0.58,0.02,0.72,,,,,,,,,,,,,,,,,,,,,,,,,0,90,90,15,1,,,,
,,,,i,0.33463,,,,,,test,2021-02-17_21h48.23.256,InstructionMarkovVideoG,2020.2.6,MacIntel,60,,,,,,,,,,65,0.55,0.55,,,,1,e,0.433685,0,,,,,,0,-0.02,-0.01,0.51,0.05,0.49,,,,,,,,,,,,,,,,,,,,,,,,,0,91,91,64,1,,,,
,,,,e,0.034205,,,,,,test,2021-02-17_21h48.23.256,InstructionMarkovVideoG,2020.2.6,MacIntel,60,,,,,,,,,,91,0.65,0.56,,,,1,i,0.31323,0,,,,,,0,0,-0.03,0.32,0.04,0.53,,,,,,,,,,,,,,,,,,,,,,,,,0,92,92,90,1,,,,
,,,,e,0.20131,,,,,,test,2021-02-17_21h48.23.256,InstructionMarkovVideoG,2020.2.6,MacIntel,60,,,,,,,,,,110,0.68,0.65,,,,1,e,0.550165,0,,,,,,0.03,-0.02,0,0.35,-0.01,0.42,,,,,,,,,,,,,,,,,,,,,,,,,0,93,93,109,1,,,,
,,,,e,0.317655,,,,,,test,2021-02-17_21h48.23.256,InstructionMarkovVideoG,2020.2.6,MacIntel,60,,,,,,,,,,109,0.65,0.67,,,,1,i,0.33399,1,,,,,,0.02,0,-0.01,0.35,0.02,0.43,,,,,,,,,,,,,,,,,,,,,,,,,0,94,94,108,1,,,,
,,,,i,0.3355,,,,,,test,2021-02-17_21h48.23.256,InstructionMarkovVideoG,2020.2.6,MacIntel,60,,,,,,,,,,58,0.59,0.59,,,,1,e,0.250745,1,,,,,,-0.02,0,-0.03,0.57,-0.04,0.52,,,,,,,,,,,,,,,,,,,,,,,,,0,95,95,57,1,,,,
,,,,i,0.36868,,,,,,test,2021-02-17_21h48.23.256,InstructionMarkovVideoG,2020.2.6,MacIntel,60,,,,,,,,,,197,0.43,0.72,,,,1,e,0.34936,0,,,,,,0.04,0.02,0.05,0.31,-0.01,0.26,,,,,,,,,,,,,,,,,,,,,,,,,0,96,96,196,1,,,,
,,,,e,0.303325,,,,,,test,2021-02-17_21h48.23.256,InstructionMarkovVideoG,2020.2.6,MacIntel,60,,,,,,,,,,97,0.66,0.56,,,,1,i,0.249985,1,,,,,,0.03,0.04,-0.04,0.31,0.01,0.56,,,,,,,,,,,,,,,,,,,,,,,,,0,97,97,96,1,,,,
,,,,e,0.418445,,,,,,test,2021-02-17_21h48.23.256,InstructionMarkovVideoG,2020.2.6,MacIntel,60,,,,,,,,,,101,0.69,0.57,,,,1,i,0.286195,0,,,,,,0,-0.01,0.04,0.38,-0.06,0.44,,,,,,,,,,,,,,,,,,,,,,,,,0,98,98,100,1,,,,
,,,,i,0.35129,,,,,,test,2021-02-17_21h48.23.256,InstructionMarkovVideoG,2020.2.6,MacIntel,60,,,,,,,,,,138,0.72,0.69,,,,0,e,0.284325,0,,,,,,0.02,-0.04,0.01,0.47,0,0.28,,,,,,,,,,,,,,,,,,,,,,,,,0,99,99,137,1,,,,
,,,,e,0.13474,,,,,,test,2021-02-17_21h48.23.256,InstructionMarkovVideoG,2020.2.6,MacIntel,60,,,,,,,,,,125,0.66,0.73,,,,1,e,0.250275,1,,,,,,0.05,0.02,-0.02,0.38,0.04,0.37,,,,,,,,,,,,,,,,,,,,,,,,,0,100,100,124,1,,,,
,,,,e,0.121715,,,,,,test,2021-02-17_21h48.23.256,InstructionMarkovVideoG,2020.2.6,MacIntel,60,,,,,,,,,,45,0.72,0.65,,,,1,e,0.283745,1,,,,,,0.03,0.03,0.01,0.6,0.04,0.73,,,,,,,,,,,,,,,,,,,,,,,,,0,101,101,44,1,,,,
,,,,e,0.301715,,,,,,test,2021-02-17_21h48.23.256,InstructionMarkovVideoG,2020.2.6,MacIntel,60,,,,,,,,,,33,0.69,0.61,,,,0,i,0.23404,1,,,,,,-0.02,0.01,0,0.62,0.03,0.73,,,,,,,,,,,,,,,,,,,,,,,,,0,102,102,32,1,,,,
,,,,i,0.25154,,,,,,test,2021-02-17_21h48.23.256,InstructionMarkovVideoG,2020.2.6,MacIntel,60,,,,,,,,,,141,0.7,0.7,,,,1,i,0.313085,0,,,,,,0,-0.02,0.02,0.52,-0.01,0.26,,,,,,,,,,,,,,,,,,,,,,,,,0,103,103,140,1,,,,
,,,,i,0.35157,,,,,,test,2021-02-17_21h48.23.256,InstructionMarkovVideoG,2020.2.6,MacIntel,60,,,,,,,,,,73,0.74,0.54,,,,1,e,0.266695,1,,,,,,0,0.01,-0.03,0.48,0.04,0.51,,,,,,,,,,,,,,,,,,,,,,,,,0,104,104,72,1,,,,
,,,,e,0.334315,,,,,,test,2021-02-17_21h48.23.256,InstructionMarkovVideoG,2020.2.6,MacIntel,60,,,,,,,,,,128,0.66,0.71,,,,0,e,0.2669,1,,,,,,-0.01,-0.01,0.01,0.42,-0.03,0.31,,,,,,,,,,,,,,,,,,,,,,,,,0,105,105,127,1,,,,
,,,,e,0.55142,,,,,,test,2021-02-17_21h48.23.256,InstructionMarkovVideoG,2020.2.6,MacIntel,60,,,,,,,,,,108,0.63,0.67,,,,1,e,0.549815,1,,,,,,-0.01,-0.04,-0.03,0.36,0,0.41,,,,,,,,,,,,,,,,,,,,,,,,,0,106,106,107,1,,,,
,,,,e,0.367675,,,,,,test,2021-02-17_21h48.23.256,InstructionMarkovVideoG,2020.2.6,MacIntel,60,,,,,,,,,,168,0.57,0.64,,,,0,i,0.250115,1,,,,,,-0.02,-0.04,-0.03,0.44,0,0.3,,,,,,,,,,,,,,,,,,,,,,,,,0,107,107,167,1,,,,
,,,,i,0.301365,,,,,,test,2021-02-17_21h48.23.256,InstructionMarkovVideoG,2020.2.6,MacIntel,60,,,,,,,,,,117,0.66,0.65,,,,1,i,0.285545,0,,,,,,-0.01,0,-0.01,0.37,0,0.35,,,,,,,,,,,,,,,,,,,,,,,,,0,108,108,116,1,,,,
,,,,e,0.134745,,,,,,test,2021-02-17_21h48.23.256,InstructionMarkovVideoG,2020.2.6,MacIntel,60,,,,,,,,,,66,0.57,0.57,,,,0,e,0.28373,1,,,,,,0.02,0.02,0.01,0.52,0,0.49,,,,,,,,,,,,,,,,,,,,,,,,,0,109,109,65,1,,,,
,,,,e,0.30184,,,,,,test,2021-02-17_21h48.23.256,InstructionMarkovVideoG,2020.2.6,MacIntel,60,,,,,,,,,,127,0.67,0.72,,,,1,e,0.4669,0,,,,,,0.01,0,0.02,0.41,-0.01,0.34,,,,,,,,,,,,,,,,,,,,,,,,,0,110,110,126,1,,,,
,,,,e,0.40129,,,,,,test,2021-02-17_21h48.23.256,InstructionMarkovVideoG,2020.2.6,MacIntel,60,,,,,,,,,,18,0.69,0.63,,,,1,e,0.250265,1,,,,,,0.01,0.03,0.01,0.59,0.03,0.72,,,,,,,,,,,,,,,,,,,,,,,,,0,111,111,17,1,,,,
,,,,e,0.3345,,,,,,test,2021-02-17_21h48.23.256,InstructionMarkovVideoG,2020.2.6,MacIntel,60,,,,,,,,,,95,0.6,0.54,,,,1,i,0.346875,1,,,,,,-0.02,0.02,-0.02,0.28,-0.04,0.5,,,,,,,,,,,,,,,,,,,,,,,,,0,112,112,94,1,,,,
,,,,e,0.267935,,,,,,test,2021-02-17_21h48.23.256,InstructionMarkovVideoG,2020.2.6,MacIntel,60,,,,,,,,,,93,0.63,0.52,,,,1,i,0.29978,1,,,,,,-0.02,-0.02,-0.01,0.28,0.01,0.57,,,,,,,,,,,,,,,,,,,,,,,,,0,113,113,92,1,,,,
,,,,e,0.35155,,,,,,test,2021-02-17_21h48.23.256,InstructionMarkovVideoG,2020.2.6,MacIntel,60,,,,,,,,,,123,0.73,0.71,,,,1,i,0.416835,0,,,,,,0.04,0.02,0,0.4,0.01,0.32,,,,,,,,,,,,,,,,,,,,,,,,,0,114,114,122,1,,,,
,,,,e,0.334615,,,,,,test,2021-02-17_21h48.23.256,InstructionMarkovVideoG,2020.2.6,MacIntel,60,,,,,,,,,,22,0.67,0.57,,,,1,e,0.267035,1,,,,,,0.03,0.01,0.01,0.55,-0.01,0.68,,,,,,,,,,,,,,,,,,,,,,,,,0,115,115,21,1,,,,
,,,,i,0.2679,,,,,,test,2021-02-17_21h48.23.256,InstructionMarkovVideoG,2020.2.6,MacIntel,60,,,,,,,,,,17,0.68,0.6,,,,1,i,0.28398,1,,,,,,0.02,-0.03,0,0.58,0.03,0.75,,,,,,,,,,,,,,,,,,,,,,,,,0,116,116,16,1,,,,
,,,,i,0.30122,,,,,,test,2021-02-17_21h48.23.256,InstructionMarkovVideoG,2020.2.6,MacIntel,60,,,,,,,,,,74,0.75,0.51,,,,1,i,0.366155,1,,,,,,0.01,-0.03,-0.04,0.44,-0.02,0.49,,,,,,,,,,,,,,,,,,,,,,,,,0,117,117,73,1,,,,
,,,,i,0.71753,,,,,,test,2021-02-17_21h48.23.256,InstructionMarkovVideoG,2020.2.6,MacIntel,60,,,,,,,,,,158,0.6,0.75,,,,0,e,0.367285,1,,,,,,0.02,0.03,0.04,0.54,0.02,0.29,,,,,,,,,,,,,,,,,,,,,,,,,0,118,118,157,1,,,,
,,,,e,0.284575,,,,,,test,2021-02-17_21h48.23.256,InstructionMarkovVideoG,2020.2.6,MacIntel,60,,,,,,,,,,177,0.49,0.68,,,,1,e,0.398715,1,,,,,,0.02,0,-0.01,0.39,-0.04,0.27,,,,,,,,,,,,,,,,,,,,,,,,,0,119,119,176,1,,,,
,,,,e,0.117335,,,,,,test,2021-02-17_21h48.23.256,InstructionMarkovVideoG,2020.2.6,MacIntel,60,,,,,,,,,,28,0.7,0.64,,,,0,e,0.433105,1,,,,,,-0.01,0.01,0.01,0.59,-0.01,0.69,,,,,,,,,,,,,,,,,,,,,,,,,0,120,120,27,1,,,,
,,,,e,0.421705,,,,,,test,2021-02-17_21h48.23.256,InstructionMarkovVideoG,2020.2.6,MacIntel,60,,,,,,,,,,21,0.64,0.56,,,,1,i,0.311145,0,,,,,,0.06,0,-0.01,0.54,0.04,0.69,,,,,,,,,,,,,,,,,,,,,,,,,0,121,121,20,1,,,,
,,,,e,0.234865,,,,,,test,2021-02-17_21h48.23.256,InstructionMarkovVideoG,2020.2.6,MacIntel,60,,,,,,,,,,40,0.7,0.6,,,,1,e,0.26428,0,,,,,,0,-0.02,0,0.61,0,0.73,,,,,,,,,,,,,,,,,,,,,,,,,0,122,122,39,1,,,,
,,,,e,0.4223,,,,,,test,2021-02-17_21h48.23.256,InstructionMarkovVideoG,2020.2.6,MacIntel,60,,,,,,,,,,30,0.71,0.62,,,,0,e,0.31322,0,,,,,,0,0,0.05,0.64,0.01,0.7,,,,,,,,,,,,,,,,,,,,,,,,,0,123,123,29,1,,,,
,,,,i,0.268335,,,,,,test,2021-02-17_21h48.23.256,InstructionMarkovVideoG,2020.2.6,MacIntel,60,,,,,,,,,,23,0.71,0.61,,,,1,e,0.25001,1,,,,,,0.04,0.04,0.01,0.56,0.01,0.69,,,,,,,,,,,,,,,,,,,,,,,,,0,124,124,22,1,,,,
,,,,i,0.351015,,,,,,test,2021-02-17_21h48.23.256,InstructionMarkovVideoG,2020.2.6,MacIntel,60,,,,,,,,,,131,0.72,0.73,,,,1,e,0.283595,0,,,,,,0.05,0.03,0,0.39,0,0.27,,,,,,,,,,,,,,,,,,,,,,,,,0,125,125,130,1,,,,
,,,,e,0.03849,,,,,,test,2021-02-17_21h48.23.256,InstructionMarkovVideoG,2020.2.6,MacIntel,60,,,,,,,,,,154,0.59,0.68,,,,1,i,0.0009,1,,,,,,-0.03,-0.02,-0.04,0.48,-0.01,0.26,,,,,,,,,,,,,,,,,,,,,,,,,0,126,126,153,1,,,,
,,,,e,0.188155,,,,,,test,2021-02-17_21h48.23.256,InstructionMarkovVideoG,2020.2.6,MacIntel,60,,,,,,,,,,27,0.71,0.63,,,,1,i,0.216795,1,,,,,,-0.02,0,-0.03,0.58,-0.01,0.7,,,,,,,,,,,,,,,,,,,,,,,,,0,127,127,26,1,,,,
,,,,e,0.1177,,,,,,test,2021-02-17_21h48.23.256,InstructionMarkovVideoG,2020.2.6,MacIntel,60,,,,,,,,,,69,0.62,0.5,,,,0,e,0.193555,1,,,,,,0.01,-0.03,0.01,0.55,-0.03,0.44,,,,,,,,,,,,,,,,,,,,,,,,,0,128,128,68,1,,,,
,,,,i,0.101535,,,,,,test,2021-02-17_21h48.23.256,InstructionMarkovVideoG,2020.2.6,MacIntel,60,,,,,,,,,,194,0.39,0.71,,,,1,i,0.259915,0,,,,,,0.04,-0.03,0,0.27,-0.02,0.25,,,,,,,,,,,,,,,,,,,,,,,,,0,129,129,193,1,,,,
,,,,i,0.36727,,,,,,test,2021-02-17_21h48.23.256,InstructionMarkovVideoG,2020.2.6,MacIntel,60,,,,,,,,,,187,0.42,0.69,,,,1,e,0.53311,0,,,,,,-0.05,-0.01,0.04,0.31,-0.04,0.25,,,,,,,,,,,,,,,,,,,,,,,,,0,130,130,186,1,,,,
,,,,e,0.43139,,,,,,test,2021-02-17_21h48.23.256,InstructionMarkovVideoG,2020.2.6,MacIntel,60,,,,,,,,,,173,0.51,0.73,,,,1,e,0.233805,1,,,,,,-0.01,0.02,-0.02,0.43,0.02,0.31,,,,,,,,,,,,,,,,,,,,,,,,,0,131,131,172,1,,,,
,,,,e,0.30152,,,,,,test,2021-02-17_21h48.23.256,InstructionMarkovVideoG,2020.2.6,MacIntel,60,,,,,,,,,,12,0.64,0.66,,,,1,i,0.233885,0,,,,,,-0.02,0.01,0.01,0.62,0.05,0.72,,,,,,,,,,,,,,,,,,,,,,,,,0,132,132,11,1,,,,
,,,,i,0.00385,,,,,,test,2021-02-17_21h48.23.256,InstructionMarkovVideoG,2020.2.6,MacIntel,60,,,,,,,,,,160,0.62,0.72,,,,1,e,0.233485,1,,,,,,-0.01,-0.02,0.03,0.55,-0.03,0.32,,,,,,,,,,,,,,,,,,,,,,,,,0,133,133,159,1,,,,
,,,,e,0.48379,,,,,,test,2021-02-17_21h48.23.256,InstructionMarkovVideoG,2020.2.6,MacIntel,60,,,,,,,,,,181,0.4,0.69,,,,0,i,0.39957,0,,,,,,-0.01,0.04,-0.02,0.4,0,0.27,,,,,,,,,,,,,,,,,,,,,,,,,0,134,134,180,1,,,,
,,,,e,0.28929,,,,,,test,2021-02-17_21h48.23.256,InstructionMarkovVideoG,2020.2.6,MacIntel,60,,,,,,,,,,1,0.55,0.51,,,,1,e,0.248465,1,,,,,,0.05,0.01,0.01,0.51,0.01,0.51,,,,,,,,,,,,,,,,,,,,,,,,,0,135,135,0,1,,,,
,,,,e,0.639185,,,,,,test,2021-02-17_21h48.23.256,InstructionMarkovVideoG,2020.2.6,MacIntel,60,,,,,,,,,,49,0.65,0.63,,,,1,i,0.2671,1,,,,,,-0.07,0.01,-0.04,0.55,-0.02,0.66,,,,,,,,,,,,,,,,,,,,,,,,,0,136,136,48,1,,,,
,,,,e,0.284695,,,,,,test,2021-02-17_21h48.23.256,InstructionMarkovVideoG,2020.2.6,MacIntel,60,,,,,,,,,,162,0.65,0.69,,,,0,e,0.249475,0,,,,,,0.03,-0.01,0.04,0.55,0.03,0.35,,,,,,,,,,,,,,,,,,,,,,,,,0,137,137,161,1,,,,
,,,,e,0.417985,,,,,,test,2021-02-17_21h48.23.256,InstructionMarkovVideoG,2020.2.6,MacIntel,60,,,,,,,,,,167,0.59,0.68,,,,1,i,0.19629,1,,,,,,0.01,-0.01,0,0.47,-0.04,0.3,,,,,,,,,,,,,,,,,,,,,,,,,0,138,138,166,1,,,,
,,,,e,0.113155,,,,,,test,2021-02-17_21h48.23.256,InstructionMarkovVideoG,2020.2.6,MacIntel,60,,,,,,,,,,143,0.68,0.71,,,,1,i,0.217055,1,,,,,,-0.02,0.03,0.03,0.61,0.01,0.26,,,,,,,,,,,,,,,,,,,,,,,,,0,139,139,142,1,,,,
,,,,e,0.219915,,,,,,test,2021-02-17_21h48.23.256,InstructionMarkovVideoG,2020.2.6,MacIntel,60,,,,,,,,,,116,0.67,0.65,,,,0,i,0.12723,0,,,,,,-0.01,0.02,0.02,0.38,-0.02,0.35,,,,,,,,,,,,,,,,,,,,,,,,,0,140,140,115,1,,,,
,,,,e,0.13053,,,,,,test,2021-02-17_21h48.23.256,InstructionMarkovVideoG,2020.2.6,MacIntel,60,,,,,,,,,,200,0.36,0.72,,,,0,e,0.21633,0,,,,,,-0.04,-0.01,0.02,0.3,-0.05,0.3,,,,,,,,,,,,,,,,,,,,,,,,,0,141,141,199,1,,,,
,,,,e,0.285135,,,,,,test,2021-02-17_21h48.23.256,InstructionMarkovVideoG,2020.2.6,MacIntel,60,,,,,,,,,,146,0.61,0.75,,,,0,i,0.134765,0,,,,,,-0.04,0.01,0,0.6,0.03,0.3,,,,,,,,,,,,,,,,,,,,,,,,,0,142,142,145,1,,,,
,,,,i,0.23099,,,,,,test,2021-02-17_21h48.23.256,InstructionMarkovVideoG,2020.2.6,MacIntel,60,,,,,,,,,,176,0.47,0.68,,,,1,e,0.23475,1,,,,,,0.01,-0.03,0.02,0.4,0,0.31,,,,,,,,,,,,,,,,,,,,,,,,,0,143,143,175,1,,,,
,,,,i,0.23903,,,,,,test,2021-02-17_21h48.23.256,InstructionMarkovVideoG,2020.2.6,MacIntel,60,,,,,,,,,,152,0.63,0.68,,,,1,e,0.22712,1,,,,,,0.02,-0.02,-0.01,0.49,0.01,0.26,,,,,,,,,,,,,,,,,,,,,,,,,0,144,144,151,1,,,,
,,,,e,0.28695,,,,,,test,2021-02-17_21h48.23.256,InstructionMarkovVideoG,2020.2.6,MacIntel,60,,,,,,,,,,60,0.61,0.55,,,,1,e,0.493985,0,,,,,,0.01,0,-0.03,0.51,0,0.49,,,,,,,,,,,,,,,,,,,,,,,,,0,145,145,59,1,,,,
,,,,e,0.46808,,,,,,test,2021-02-17_21h48.23.256,InstructionMarkovVideoG,2020.2.6,MacIntel,60,,,,,,,,,,122,0.69,0.69,,,,1,i,0.51844,1,,,,,,-0.02,0,0.01,0.4,0.03,0.31,,,,,,,,,,,,,,,,,,,,,,,,,0,146,146,121,1,,,,
,,,,e,0.280175,,,,,,test,2021-02-17_21h48.23.256,InstructionMarkovVideoG,2020.2.6,MacIntel,60,,,,,,,,,,24,0.71,0.63,,,,1,e,0.22744,1,,,,,,0,0.02,-0.01,0.55,0.02,0.71,,,,,,,,,,,,,,,,,,,,,,,,,0,147,147,23,1,,,,
,,,,e,0.306555,,,,,,test,2021-02-17_21h48.23.256,InstructionMarkovVideoG,2020.2.6,MacIntel,60,,,,,,,,,,36,0.68,0.58,,,,1,i,0.266195,0,,,,,,-0.05,-0.03,0,0.6,0.01,0.73,,,,,,,,,,,,,,,,,,,,,,,,,0,148,148,35,1,,,,
,,,,e,0.16904,,,,,,test,2021-02-17_21h48.23.256,InstructionMarkovVideoG,2020.2.6,MacIntel,60,,,,,,,,,,86,0.73,0.49,,,,0,e,0.231115,1,,,,,,-0.01,0,0.01,0.35,0,0.46,,,,,,,,,,,,,,,,,,,,,,,,,0,149,149,85,1,,,,
,,,,e,0.31843,,,,,,test,2021-02-17_21h48.23.256,InstructionMarkovVideoG,2020.2.6,MacIntel,60,,,,,,,,,,136,0.72,0.7,,,,1,e,0.327095,1,,,,,,-0.01,-0.02,0.04,0.47,-0.03,0.26,,,,,,,,,,,,,,,,,,,,,,,,,0,150,150,135,1,,,,
,,,,i,0.30091,,,,,,test,2021-02-17_21h48.23.256,InstructionMarkovVideoG,2020.2.6,MacIntel,60,,,,,,,,,,111,0.66,0.66,,,,1,i,0.16464,0,,,,,,-0.02,0.01,0,0.35,-0.01,0.41,,,,,,,,,,,,,,,,,,,,,,,,,0,151,151,110,1,,,,
,,,,i,0.267955,,,,,,test,2021-02-17_21h48.23.256,InstructionMarkovVideoG,2020.2.6,MacIntel,60,,,,,,,,,,13,0.68,0.66,,,,1,e,0.41763,1,,,,,,0.04,0,0.01,0.63,-0.03,0.69,,,,,,,,,,,,,,,,,,,,,,,,,0,152,152,12,1,,,,
,,,,e,0.151685,,,,,,test,2021-02-17_21h48.23.256,InstructionMarkovVideoG,2020.2.6,MacIntel,60,,,,,,,,,,81,0.73,0.51,,,,1,e,0.261955,1,,,,,,0,-0.02,-0.05,0.36,-0.01,0.52,,,,,,,,,,,,,,,,,,,,,,,,,0,153,153,80,1,,,,
,,,,e,0.23923,,,,,,test,2021-02-17_21h48.23.256,InstructionMarkovVideoG,2020.2.6,MacIntel,60,,,,,,,,,,64,0.55,0.57,,,,1,e,0.35099,0,,,,,,-0.01,-0.01,-0.01,0.52,-0.02,0.44,,,,,,,,,,,,,,,,,,,,,,,,,0,154,154,63,1,,,,
,,,,e,0.3203,,,,,,test,2021-02-17_21h48.23.256,InstructionMarkovVideoG,2020.2.6,MacIntel,60,,,,,,,,,,6,0.57,0.55,,,,0,i,0.53251,1,,,,,,-0.01,0,0.01,0.56,0,0.59,,,,,,,,,,,,,,,,,,,,,,,,,0,155,155,5,1,,,,
,,,,i,0.320525,,,,,,test,2021-02-17_21h48.23.256,InstructionMarkovVideoG,2020.2.6,MacIntel,60,,,,,,,,,,130,0.67,0.7,,,,1,e,0.17609,0,,,,,,-0.01,-0.02,-0.03,0.39,-0.05,0.27,,,,,,,,,,,,,,,,,,,,,,,,,0,156,156,129,1,,,,
,,,,i,0.172805,,,,,,test,2021-02-17_21h48.23.256,InstructionMarkovVideoG,2020.2.6,MacIntel,60,,,,,,,,,,96,0.63,0.52,,,,1,e,0.233355,0,,,,,,0.03,-0.02,-0.01,0.27,0.05,0.55,,,,,,,,,,,,,,,,,,,,,,,,,0,157,157,95,1,,,,
,,,,e,0.61845,,,,,,test,2021-02-17_21h48.23.256,InstructionMarkovVideoG,2020.2.6,MacIntel,60,,,,,,,,,,186,0.47,0.7,,,,1,e,0.318665,0,,,,,,0.02,0,-0.05,0.27,0.03,0.29,,,,,,,,,,,,,,,,,,,,,,,,,0,158,158,185,1,,,,
,,,,e,0.352375,,,,,,test,2021-02-17_21h48.23.256,InstructionMarkovVideoG,2020.2.6,MacIntel,60,,,,,,,,,,9,0.67,0.59,,,,1,i,0.43495,0,,,,,,0.02,0.03,-0.02,0.6,0.02,0.66,,,,,,,,,,,,,,,,,,,,,,,,,0,159,159,8,1,,,,
,,,,e,0.100925,,,,,,test,2021-02-17_21h48.23.256,InstructionMarkovVideoG,2020.2.6,MacIntel,60,,,,,,,,,,175,0.46,0.71,,,,1,e,0.38361,1,,,,,,-0.03,-0.02,-0.04,0.38,0.02,0.31,,,,,,,,,,,,,,,,,,,,,,,,,0,160,160,174,1,,,,
,,,,i,0.33475,,,,,,test,2021-02-17_21h48.23.256,InstructionMarkovVideoG,2020.2.6,MacIntel,60,,,,,,,,,,19,0.71,0.58,,,,1,i,0.283545,1,,,,,,0.02,-0.05,-0.03,0.56,0.01,0.73,,,,,,,,,,,,,,,,,,,,,,,,,0,161,161,18,1,,,,
,,,,i,0.602365,,,,,,test,2021-02-17_21h48.23.256,InstructionMarkovVideoG,2020.2.6,MacIntel,60,,,,,,,,,,183,0.45,0.7,,,,0,e,0.215125,0,,,,,,0.05,0,-0.01,0.36,0,0.28,,,,,,,,,,,,,,,,,,,,,,,,,0,162,162,182,1,,,,
,,,,e,0.003005,,,,,,test,2021-02-17_21h48.23.256,InstructionMarkovVideoG,2020.2.6,MacIntel,60,,,,,,,,,,124,0.71,0.75,,,,1,e,0.40058,0,,,,,,-0.02,0.04,0,0.4,0.01,0.33,,,,,,,,,,,,,,,,,,,,,,,,,0,163,163,123,1,,,,
,,,,e,0.43362,,,,,,test,2021-02-17_21h48.23.256,InstructionMarkovVideoG,2020.2.6,MacIntel,60,,,,,,,,,,199,0.4,0.73,,,,0,i,0.766205,0,,,,,,-0.01,0.02,0.02,0.28,-0.01,0.25,,,,,,,,,,,,,,,,,,,,,,,,,0,164,164,198,1,,,,
,,,,e,0.23441,,,,,,test,2021-02-17_21h48.23.256,InstructionMarkovVideoG,2020.2.6,MacIntel,60,,,,,,,,,,15,0.65,0.66,,,,1,i,0.184325,1,,,,,,-0.02,-0.01,-0.02,0.6,-0.01,0.7,,,,,,,,,,,,,,,,,,,,,,,,,0,165,165,14,1,,,,
,,,,e,0.16727,,,,,,test,2021-02-17_21h48.23.256,InstructionMarkovVideoG,2020.2.6,MacIntel,60,,,,,,,,,,180,0.41,0.65,,,,1,i,0.31727,0,,,,,,-0.03,-0.02,0.01,0.42,-0.03,0.27,,,,,,,,,,,,,,,,,,,,,,,,,0,166,166,179,1,,,,
,,,,e,0.26782,,,,,,test,2021-02-17_21h48.23.256,InstructionMarkovVideoG,2020.2.6,MacIntel,60,,,,,,,,,,90,0.65,0.56,,,,1,e,0.21726,1,,,,,,-0.04,0,0,0.35,0.04,0.49,,,,,,,,,,,,,,,,,,,,,,,,,0,167,167,89,1,,,,
,,,,e,0.200915,,,,,,test,2021-02-17_21h48.23.256,InstructionMarkovVideoG,2020.2.6,MacIntel,60,,,,,,,,,,68,0.61,0.53,,,,0,e,0.084825,0,,,,,,0.02,-0.01,0.01,0.54,0.01,0.47,,,,,,,,,,,,,,,,,,,,,,,,,0,168,168,67,1,,,,
,,,,e,0.317725,,,,,,test,2021-02-17_21h48.23.256,InstructionMarkovVideoG,2020.2.6,MacIntel,60,,,,,,,,,,145,0.65,0.74,,,,1,i,0.68638,1,,,,,,-0.01,0,-0.01,0.6,0,0.27,,,,,,,,,,,,,,,,,,,,,,,,,0,169,169,144,1,,,,
,,,,e,0.3518,,,,,,test,2021-02-17_21h48.23.256,InstructionMarkovVideoG,2020.2.6,MacIntel,60,,,,,,,,,,171,0.54,0.69,,,,0,i,0.38027,0,,,,,,-0.01,0.02,-0.01,0.43,-0.02,0.26,,,,,,,,,,,,,,,,,,,,,,,,,0,170,170,170,1,,,,
,,,,e,0.41765,,,,,,test,2021-02-17_21h48.23.256,InstructionMarkovVideoG,2020.2.6,MacIntel,60,,,,,,,,,,53,0.62,0.62,,,,0,e,0.21279,0,,,,,,0,0,0,0.58,-0.01,0.62,,,,,,,,,,,,,,,,,,,,,,,,,0,171,171,52,1,,,,
,,,,e,0.19715,,,,,,test,2021-02-17_21h48.23.256,InstructionMarkovVideoG,2020.2.6,MacIntel,60,,,,,,,,,,104,0.65,0.7,,,,1,e,0.16756,0,,,,,,-0.01,0.04,-0.02,0.35,-0.05,0.43,,,,,,,,,,,,,,,,,,,,,,,,,0,172,172,103,1,,,,
,,,,e,0.317955,,,,,,test,2021-02-17_21h48.23.256,InstructionMarkovVideoG,2020.2.6,MacIntel,60,,,,,,,,,,88,0.72,0.55,,,,1,i,0.283985,1,,,,,,0.02,0.02,-0.02,0.33,0,0.48,,,,,,,,,,,,,,,,,,,,,,,,,0,173,173,87,1,,,,
,,,,e,0.30338,,,,,,test,2021-02-17_21h48.23.256,InstructionMarkovVideoG,2020.2.6,MacIntel,60,,,,,,,,,,82,0.67,0.51,,,,1,e,0.167335,1,,,,,,-0.06,0,-0.02,0.34,-0.03,0.49,,,,,,,,,,,,,,,,,,,,,,,,,0,174,174,81,1,,,,
,,,,e,0.167775,,,,,,test,2021-02-17_21h48.23.256,InstructionMarkovVideoG,2020.2.6,MacIntel,60,,,,,,,,,,84,0.69,0.5,,,,1,e,0.349215,1,,,,,,0,0,-0.04,0.33,-0.02,0.47,,,,,,,,,,,,,,,,,,,,,,,,,0,175,175,83,1,,,,
,,,,e,0.051235,,,,,,test,2021-02-17_21h48.23.256,InstructionMarkovVideoG,2020.2.6,MacIntel,60,,,,,,,,,,198,0.41,0.71,,,,0,e,0.202815,0,,,,,,-0.02,-0.01,-0.05,0.26,0,0.26,,,,,,,,,,,,,,,,,,,,,,,,,0,176,176,197,1,,,,
,,,,e,0.417965,,,,,,test,2021-02-17_21h48.23.256,InstructionMarkovVideoG,2020.2.6,MacIntel,60,,,,,,,,,,179,0.44,0.67,,,,1,i,0.216715,0,,,,,,-0.02,-0.01,-0.01,0.41,-0.01,0.3,,,,,,,,,,,,,,,,,,,,,,,,,0,177,177,178,1,,,,
,,,,e,0.28692,,,,,,test,2021-02-17_21h48.23.256,InstructionMarkovVideoG,2020.2.6,MacIntel,60,,,,,,,,,,85,0.74,0.49,,,,1,e,0.13303,0,,,,,,0.05,-0.01,0.01,0.34,-0.01,0.46,,,,,,,,,,,,,,,,,,,,,,,,,0,178,178,84,1,,,,
,,,,e,0.268305,,,,,,test,2021-02-17_21h48.23.256,InstructionMarkovVideoG,2020.2.6,MacIntel,60,,,,,,,,,,195,0.41,0.73,,,,1,e,0.23297,1,,,,,,0.02,0.02,-0.01,0.26,-0.01,0.26,,,,,,,,,,,,,,,,,,,,,,,,,0,179,179,194,1,,,,
,,,,e,0.338335,,,,,,test,2021-02-17_21h48.23.256,InstructionMarkovVideoG,2020.2.6,MacIntel,60,,,,,,,,,,166,0.58,0.69,,,,1,e,0.30055,0,,,,,,-0.05,0.01,-0.01,0.47,-0.01,0.26,,,,,,,,,,,,,,,,,,,,,,,,,0,180,180,165,1,,,,
,,,,e,0.268295,,,,,,test,2021-02-17_21h48.23.256,InstructionMarkovVideoG,2020.2.6,MacIntel,60,,,,,,,,,,169,0.6,0.63,,,,1,i,0.26712,1,,,,,,0.03,-0.01,0,0.44,-0.01,0.29,,,,,,,,,,,,,,,,,,,,,,,,,0,181,181,168,1,,,,
,,,,e,0.33686,,,,,,test,2021-02-17_21h48.23.256,InstructionMarkovVideoG,2020.2.6,MacIntel,60,,,,,,,,,,3,0.6,0.51,,,,1,e,0.266345,0,,,,,,0.05,0.03,0.01,0.53,0.01,0.53,,,,,,,,,,,,,,,,,,,,,,,,,0,182,182,2,1,,,,
,,,,i,0.300905,,,,,,test,2021-02-17_21h48.23.256,InstructionMarkovVideoG,2020.2.6,MacIntel,60,,,,,,,,,,14,0.67,0.67,,,,1,e,0.633695,1,,,,,,-0.01,0.01,-0.01,0.62,0.02,0.71,,,,,,,,,,,,,,,,,,,,,,,,,0,183,183,13,1,,,,
,,,,e,0.72013,,,,,,test,2021-02-17_21h48.23.256,InstructionMarkovVideoG,2020.2.6,MacIntel,60,,,,,,,,,,129,0.68,0.72,,,,1,i,0.43255,1,,,,,,0.02,0.01,0,0.42,0.01,0.32,,,,,,,,,,,,,,,,,,,,,,,,,0,184,184,128,1,,,,
,,,,i,0.451595,,,,,,test,2021-02-17_21h48.23.256,InstructionMarkovVideoG,2020.2.6,MacIntel,60,,,,,,,,,,120,0.69,0.71,,,,1,e,0.51757,1,,,,,,0,0.03,0,0.43,0,0.27,,,,,,,,,,,,,,,,,,,,,,,,,0,185,185,119,1,,,,
,,,,e,0.45108,,,,,,test,2021-02-17_21h48.23.256,InstructionMarkovVideoG,2020.2.6,MacIntel,60,,,,,,,,,,50,0.63,0.62,,,,0,i,0.350065,0,,,,,,-0.02,-0.01,-0.01,0.54,0,0.66,,,,,,,,,,,,,,,,,,,,,,,,,0,186,186,49,1,,,,
,,,,e,0.353945,,,,,,test,2021-02-17_21h48.23.256,InstructionMarkovVideoG,2020.2.6,MacIntel,60,,,,,,,,,,137,0.74,0.73,,,,0,e,0.465465,1,,,,,,0.02,0.03,-0.01,0.46,0.02,0.28,,,,,,,,,,,,,,,,,,,,,,,,,0,187,187,136,1,,,,
,,,,e,0.251725,,,,,,test,2021-02-17_21h48.23.256,InstructionMarkovVideoG,2020.2.6,MacIntel,60,,,,,,,,,,94,0.62,0.52,,,,1,i,0.25102,0,,,,,,-0.01,0,-0.02,0.26,-0.03,0.54,,,,,,,,,,,,,,,,,,,,,,,,,0,188,188,93,1,,,,
,,,,e,0.30104,,,,,,test,2021-02-17_21h48.23.256,InstructionMarkovVideoG,2020.2.6,MacIntel,60,,,,,,,,,,20,0.7,0.56,,,,1,e,0.218785,0,,,,,,-0.01,-0.02,-0.01,0.55,0,0.73,,,,,,,,,,,,,,,,,,,,,,,,,0,189,189,19,1,,,,
,,,,e,0.38495,,,,,,test,2021-02-17_21h48.23.256,InstructionMarkovVideoG,2020.2.6,MacIntel,60,,,,,,,,,,119,0.69,0.68,,,,0,e,0.249805,1,,,,,,0.04,0.02,0.08,0.43,-0.03,0.27,,,,,,,,,,,,,,,,,,,,,,,,,0,190,190,118,1,,,,
,,,,e,0.167305,,,,,,test,2021-02-17_21h48.23.256,InstructionMarkovVideoG,2020.2.6,MacIntel,60,,,,,,,,,,118,0.65,0.66,,,,1,i,0.19873,1,,,,,,-0.01,0.01,-0.02,0.35,-0.05,0.3,,,,,,,,,,,,,,,,,,,,,,,,,0,191,191,117,1,,,,
,,,,e,0.3846,,,,,,test,2021-02-17_21h48.23.256,InstructionMarkovVideoG,2020.2.6,MacIntel,60,,,,,,,,,,188,0.43,0.65,,,,1,e,0.196805,1,,,,,,0.01,-0.04,0,0.31,0.01,0.26,,,,,,,,,,,,,,,,,,,,,,,,,0,192,192,187,1,,,,
,,,,e,0.35126,,,,,,test,2021-02-17_21h48.23.256,InstructionMarkovVideoG,2020.2.6,MacIntel,60,,,,,,,,,,164,0.63,0.69,,,,1,i,0.200215,0,,,,,,-0.03,0,-0.03,0.48,-0.03,0.33,,,,,,,,,,,,,,,,,,,,,,,,,0,193,193,163,1,,,,
,,,,i,0.31912,,,,,,test,2021-02-17_21h48.23.256,InstructionMarkovVideoG,2020.2.6,MacIntel,60,,,,,,,,,,182,0.4,0.7,,,,1,i,0.267195,1,,,,,,0,0.01,-0.03,0.37,0.01,0.28,,,,,,,,,,,,,,,,,,,,,,,,,0,194,194,181,1,,,,
,,,,i,0.368255,,,,,,test,2021-02-17_21h48.23.256,InstructionMarkovVideoG,2020.2.6,MacIntel,60,,,,,,,,,,193,0.35,0.74,,,,1,e,0.133745,1,,,,,,-0.01,0,-0.02,0.27,-0.01,0.27,,,,,,,,,,,,,,,,,,,,,,,,,0,195,195,192,1,,,,
,,,,i,0.284835,,,,,,test,2021-02-17_21h48.23.256,InstructionMarkovVideoG,2020.2.6,MacIntel,60,,,,,,,,,,102,0.68,0.61,,,,1,e,0.25083,0,,,,,,-0.01,0.04,-0.01,0.37,0.02,0.46,,,,,,,,,,,,,,,,,,,,,,,,,0,196,196,101,1,,,,
,,,,e,0.204255,,,,,,test,2021-02-17_21h48.23.256,InstructionMarkovVideoG,2020.2.6,MacIntel,60,,,,,,,,,,51,0.62,0.66,,,,0,e,0.28433,1,,,,,,-0.01,0.04,0.05,0.59,0.01,0.67,,,,,,,,,,,,,,,,,,,,,,,,,0,197,197,50,1,,,,
,,,,e,0.31758,,,,,,test,2021-02-17_21h48.23.256,InstructionMarkovVideoG,2020.2.6,MacIntel,60,,,,,,,,,,106,0.65,0.73,,,,0,i,0.51469,0,,,,,,0,0.02,-0.03,0.39,0.03,0.43,,,,,,,,,,,,,,,,,,,,,,,,,0,198,198,105,1,,,,
,,,,e,0.467985,,,,,,test,2021-02-17_21h48.23.256,InstructionMarkovVideoG,2020.2.6,MacIntel,60,,,,,,,,,,149,0.58,0.73,,,,0,e,0.26732,0,,,,,,-0.01,0.02,-0.03,0.53,-0.06,0.25,,,,,,,,,,,,,,,,,,,,,,,,,0,199,199,148,1,,,,
,,,,,,,,,,,test,2021-02-17_21h48.23.256,InstructionMarkovVideoG,2020.2.6,MacIntel,60,,,,,,,,,,,,,,,,,,,,,,,,,,,,,,,,,,,,,,6,0,2.133885,6,0,0.234665,6,0,0.268285,,,,,,,,,,,,,,space,3.21851,space,10.53011
