Instruction_KeyP.keys,Instruction_KeyP.rt,Instruction2_KeyP.keys,Instruction2_KeyP.rt,Choice1.keys,Choice1.rt,Ex_Step1.thisRepN,Ex_Step1.thisTrialN,Ex_Step1.thisN,Ex_Step1.thisIndex,Ex_Step1.ran,email,date,expName,psychopyVersion,OS,frameRate,InstrStep2KResp.keys,InstrStep2KResp.rt,Choice2Entr.keys,Choice2Entr.rt,Step2Training.thisRepN,Step2Training.thisTrialN,Step2Training.thisN,Step2Training.thisIndex,Step2Training.ran,Ntrial,PChoice21,PChoice22,WallPaperColor,InstrTotKR.keys,InstrTotKR.rt,Transition,Choice2.keys,Choice2.rt,Reward,TrainingTot.thisRepN,TrainingTot.thisTrialN,TrainingTot.thisN,TrainingTot.thisIndex,TrainingTot.ran,Walk21,Walk22,Walk23,PChoice23,Walk24,PChoice24,Question.thisRepN,Question.thisTrialN,Question.thisN,Question.thisIndex,Question.ran,RepriseTacheKR.keys,RepriseTacheKR.rt,CravingKR.keys,CravingKR.corr,CravingKR.rt,ResistKR.keys,ResistKR.corr,ResistKR.rt,StressKR.keys,StressKR.corr,StressKR.rt,LoopVideoG.thisRepN,LoopVideoG.thisTrialN,LoopVideoG.thisN,LoopVideoG.thisIndex,LoopVideoG.ran,Video,VraieTacheKR.keys,VraieTacheKR.rt,Task1.thisRepN,Task1.thisTrialN,Task1.thisN,Task1.thisIndex,Task1.ran,FinTache1KR.keys,FinTache1KR.rt,FinSession1KR.keys,FinSession1KR.rt
space,13.78933,space,6.050285,i,6.37072,0,0,0,0,1,thollard,2021-03-26_18h35.02.287,InstructionMarkovVideoG,2020.2.6,MacIntel,60,,,,,,,,,,,,,,,,,,,,,,,,,,,,,,,,,,,,,,,,,,,,,,,,,,,,,,,,,,,,,,,
,,,,i,5.422535,1,0,1,0,1,thollard,2021-03-26_18h35.02.287,InstructionMarkovVideoG,2020.2.6,MacIntel,60,,,,,,,,,,,,,,,,,,,,,,,,,,,,,,,,,,,,,,,,,,,,,,,,,,,,,,,,,,,,,,,
,,,,i,2.14241,2,0,2,0,1,thollard,2021-03-26_18h35.02.287,InstructionMarkovVideoG,2020.2.6,MacIntel,60,,,,,,,,,,,,,,,,,,,,,,,,,,,,,,,,,,,,,,,,,,,,,,,,,,,,,,,,,,,,,,,
,,,,i,1.32426,3,0,3,0,1,thollard,2021-03-26_18h35.02.287,InstructionMarkovVideoG,2020.2.6,MacIntel,60,,,,,,,,,,,,,,,,,,,,,,,,,,,,,,,,,,,,,,,,,,,,,,,,,,,,,,,,,,,,,,,
,,,,e,2.023525,4,0,4,0,1,thollard,2021-03-26_18h35.02.287,InstructionMarkovVideoG,2020.2.6,MacIntel,60,,,,,,,,,,,,,,,,,,,,,,,,,,,,,,,,,,,,,,,,,,,,,,,,,,,,,,,,,,,,,,,
,,,,e,2.60163,5,0,5,0,1,thollard,2021-03-26_18h35.02.287,InstructionMarkovVideoG,2020.2.6,MacIntel,60,,,,,,,,,,,,,,,,,,,,,,,,,,,,,,,,,,,,,,,,,,,,,,,,,,,,,,,,,,,,,,,
,,,,e,7.639755,6,0,6,0,1,thollard,2021-03-26_18h35.02.287,InstructionMarkovVideoG,2020.2.6,MacIntel,60,,,,,,,,,,,,,,,,,,,,,,,,,,,,,,,,,,,,,,,,,,,,,,,,,,,,,,,,,,,,,,,
,,,,i,2.05071,7,0,7,0,1,thollard,2021-03-26_18h35.02.287,InstructionMarkovVideoG,2020.2.6,MacIntel,60,,,,,,,,,,,,,,,,,,,,,,,,,,,,,,,,,,,,,,,,,,,,,,,,,,,,,,,,,,,,,,,
,,,,i,1.842445,8,0,8,0,1,thollard,2021-03-26_18h35.02.287,InstructionMarkovVideoG,2020.2.6,MacIntel,60,,,,,,,,,,,,,,,,,,,,,,,,,,,,,,,,,,,,,,,,,,,,,,,,,,,,,,,,,,,,,,,
,,,,i,2.344175,9,0,9,0,1,thollard,2021-03-26_18h35.02.287,InstructionMarkovVideoG,2020.2.6,MacIntel,60,,,,,,,,,,,,,,,,,,,,,,,,,,,,,,,,,,,,,,,,,,,,,,,,,,,,,,,,,,,,,,,
,,,,,,,,,,,thollard,2021-03-26_18h35.02.287,InstructionMarkovVideoG,2020.2.6,MacIntel,60,space,3.375805,i,2.852445,0,0,0,0,1,1,0.2,0.8,Green,,,,,,,,,,,,,,,,,,,,,,,,,,,,,,,,,,,,,,,,,,,,,,,,,,
,,,,,,,,,,,thollard,2021-03-26_18h35.02.287,InstructionMarkovVideoG,2020.2.6,MacIntel,60,,,i,3.928175,0,1,1,1,1,2,0.2,0.8,Green,,,,,,,,,,,,,,,,,,,,,,,,,,,,,,,,,,,,,,,,,,,,,,,,,,
,,,,,,,,,,,thollard,2021-03-26_18h35.02.287,InstructionMarkovVideoG,2020.2.6,MacIntel,60,,,i,1.65434,0,2,2,2,1,3,0.2,0.8,Green,,,,,,,,,,,,,,,,,,,,,,,,,,,,,,,,,,,,,,,,,,,,,,,,,,
,,,,,,,,,,,thollard,2021-03-26_18h35.02.287,InstructionMarkovVideoG,2020.2.6,MacIntel,60,,,i,0.368745,0,3,3,3,1,4,0.2,0.8,Green,,,,,,,,,,,,,,,,,,,,,,,,,,,,,,,,,,,,,,,,,,,,,,,,,,
,,,,,,,,,,,thollard,2021-03-26_18h35.02.287,InstructionMarkovVideoG,2020.2.6,MacIntel,60,,,i,0.3703,0,4,4,4,1,5,0.8,0.2,Green,,,,,,,,,,,,,,,,,,,,,,,,,,,,,,,,,,,,,,,,,,,,,,,,,,
,,,,,,,,,,,thollard,2021-03-26_18h35.02.287,InstructionMarkovVideoG,2020.2.6,MacIntel,60,,,i,1.161655,0,5,5,5,1,6,0.8,0.2,Blue,,,,,,,,,,,,,,,,,,,,,,,,,,,,,,,,,,,,,,,,,,,,,,,,,,
,,,,,,,,,,,thollard,2021-03-26_18h35.02.287,InstructionMarkovVideoG,2020.2.6,MacIntel,60,,,i,0.728175,0,6,6,6,1,7,0.8,0.2,Blue,,,,,,,,,,,,,,,,,,,,,,,,,,,,,,,,,,,,,,,,,,,,,,,,,,
,,,,,,,,,,,thollard,2021-03-26_18h35.02.287,InstructionMarkovVideoG,2020.2.6,MacIntel,60,,,i,2.24304,0,7,7,7,1,8,0.2,0.8,Blue,,,,,,,,,,,,,,,,,,,,,,,,,,,,,,,,,,,,,,,,,,,,,,,,,,
,,,,,,,,,,,thollard,2021-03-26_18h35.02.287,InstructionMarkovVideoG,2020.2.6,MacIntel,60,,,i,0.794535,0,8,8,8,1,9,0.8,0.2,Blue,,,,,,,,,,,,,,,,,,,,,,,,,,,,,,,,,,,,,,,,,,,,,,,,,,
,,,,,,,,,,,thollard,2021-03-26_18h35.02.287,InstructionMarkovVideoG,2020.2.6,MacIntel,60,,,i,0.70334,0,9,9,9,1,10,0.8,0.8,Blue,,,,,,,,,,,,,,,,,,,,,,,,,,,,,,,,,,,,,,,,,,,,,,,,,,
,,,,i,1.137595,,,,,,thollard,2021-03-26_18h35.02.287,InstructionMarkovVideoG,2020.2.6,MacIntel,60,,,,,,,,,,3,0.52,0.44,,space,30.444075,0,e,3.50312,1,0,0,0,2,1,0.02,-0.01,-0.05,0.47,-0.04,0.42,,,,,,,,,,,,,,,,,,,,,,,,,,,,,,,,,
,,,,i,2.710865,,,,,,thollard,2021-03-26_18h35.02.287,InstructionMarkovVideoG,2020.2.6,MacIntel,60,,,,,,,,,,1,0.5,0.49,,,,1,i,2.28323,0,0,1,1,0,1,0,-0.01,0.02,0.52,0.01,0.51,,,,,,,,,,,,,,,,,,,,,,,,,,,,,,,,,
,,,,i,3.87233,,,,,,thollard,2021-03-26_18h35.02.287,InstructionMarkovVideoG,2020.2.6,MacIntel,60,,,,,,,,,,2,0.5,0.45,,,,1,e,3.20551,1,0,2,2,1,1,0,-0.04,0,0.52,-0.05,0.46,,,,,,,,,,,,,,,,,,,,,,,,,,,,,,,,,
,,,,i,1.512045,,,,,,thollard,2021-03-26_18h35.02.287,InstructionMarkovVideoG,2020.2.6,MacIntel,60,,,,,,,,,,6,0.49,0.51,,,,1,e,0.849975,0,0,3,3,5,1,-0.03,0.03,0.02,0.45,-0.04,0.32,,,,,,,,,,,,,,,,,,,,,,,,,,,,,,,,,
,,,,e,3.20821,,,,,,thollard,2021-03-26_18h35.02.287,InstructionMarkovVideoG,2020.2.6,MacIntel,60,,,,,,,,,,8,0.51,0.52,,,,1,i,0.664575,0,0,4,4,7,1,0.02,-0.03,-0.01,0.47,-0.03,0.27,,,,,,,,,,,,,,,,,,,,,,,,,,,,,,,,,
,,,,e,0.727155,,,,,,thollard,2021-03-26_18h35.02.287,InstructionMarkovVideoG,2020.2.6,MacIntel,60,,,,,,,,,,9,0.45,0.54,,,,1,i,0.53946,0,0,5,5,8,1,-0.06,0.02,0.01,0.48,0,0.27,,,,,,,,,,,,,,,,,,,,,,,,,,,,,,,,,
,,,,i,0.467795,,,,,,thollard,2021-03-26_18h35.02.287,InstructionMarkovVideoG,2020.2.6,MacIntel,60,,,,,,,,,,4,0.55,0.42,,,,0,e,0.1705,1,0,6,6,3,1,0.03,-0.02,0,0.47,-0.03,0.39,,,,,,,,,,,,,,,,,,,,,,,,,,,,,,,,,
,,,,i,0.370695,,,,,,thollard,2021-03-26_18h35.02.287,InstructionMarkovVideoG,2020.2.6,MacIntel,60,,,,,,,,,,7,0.49,0.55,,,,1,e,1.2011,0,0,7,7,6,1,0,0.04,0.03,0.48,-0.02,0.3,,,,,,,,,,,,,,,,,,,,,,,,,,,,,,,,,
,,,,e,0.9371,,,,,,thollard,2021-03-26_18h35.02.287,InstructionMarkovVideoG,2020.2.6,MacIntel,60,,,,,,,,,,5,0.52,0.48,,,,1,e,0.886525,1,0,8,8,4,1,-0.03,0.06,-0.04,0.43,-0.03,0.36,,,,,,,,,,,,,,,,,,,,,,,,,,,,,,,,,
,,,,e,0.963395,,,,,,thollard,2021-03-26_18h35.02.287,InstructionMarkovVideoG,2020.2.6,MacIntel,60,,,,,,,,,,10,0.52,0.55,,,,1,e,1.249655,1,0,9,9,9,1,0.07,0.01,-0.01,0.47,-0.01,0.26,,,,,,,,,,,,,,,,,,,,,,,,,,,,,,,,,
,,,,,,,,,,,thollard,2021-03-26_18h35.02.287,InstructionMarkovVideoG,2020.2.6,MacIntel,60,,,,,,,,,,,,,,,,,,,,,,,,,,,,,,,0,0,0,0,1,,,,,,,,,,,,,,,,,,,,,,,,,,,,
,,,,,,,,,,,thollard,2021-03-26_18h35.02.287,InstructionMarkovVideoG,2020.2.6,MacIntel,60,,,,,,,,,,,,,,,,,,,,,,,,,,,,,,,,,,,,space,10.65495,1,0,11.629175,9,0,7.182425,2,0,3.29467,0,0,0,0,1,VG1.mp4,,,,,,,,,,,
,,,,,,,,,,,thollard,2021-03-26_18h35.02.287,InstructionMarkovVideoG,2020.2.6,MacIntel,60,,,,,,,,,,,,,,,,,,,,,,,,,,,,,,,,,,,,,,,,,,,,,,,0,1,1,1,1,VG2.mp4,,,,,,,,,,,
,,,,,,,,,,,thollard,2021-03-26_18h35.02.287,InstructionMarkovVideoG,2020.2.6,MacIntel,60,,,,,,,,,,,,,,,,,,,,,,,,,,,,,,,,,,,,,,,,,,,,,,,0,2,2,2,1,VG3.mp4,,,,,,,,,,,
,,,,,,,,,,,thollard,2021-03-26_18h35.02.287,InstructionMarkovVideoG,2020.2.6,MacIntel,60,,,,,,,,,,,,,,,,,,,,,,,,,,,,,,,,,,,,,,,,,,,,,,,0,3,3,4,1,VG5.mp4,,,,,,,,,,,
,,,,,,,,,,,thollard,2021-03-26_18h35.02.287,InstructionMarkovVideoG,2020.2.6,MacIntel,60,,,,,,,,,,,,,,,,,,,,,,,,,,,,,,,,,,,,,,,,,,,,,,,0,4,4,7,1,VG8.mp4,,,,,,,,,,,
,,,,,,,,,,,thollard,2021-03-26_18h35.02.287,InstructionMarkovVideoG,2020.2.6,MacIntel,60,,,,,,,,,,,,,,,,,,,,,,,,,,,,,,,,,,,,,,,,,,,,,,,0,5,5,6,1,VG7.mp4,,,,,,,,,,,
,,,,,,,,,,,thollard,2021-03-26_18h35.02.287,InstructionMarkovVideoG,2020.2.6,MacIntel,60,,,,,,,,,,,,,,,,,,,,,,,,,,,,,,,,,,,,,,,,,,,,,,,0,6,6,5,1,VG6.mp4,,,,,,,,,,,
,,,,,,,,,,,thollard,2021-03-26_18h35.02.287,InstructionMarkovVideoG,2020.2.6,MacIntel,60,,,,,,,,,,,,,,,,,,,,,,,,,,,,,,,,,,,,,,,,,,,,,,,0,7,7,9,1,VG10.mp4,,,,,,,,,,,
,,,,,,,,,,,thollard,2021-03-26_18h35.02.287,InstructionMarkovVideoG,2020.2.6,MacIntel,60,,,,,,,,,,,,,,,,,,,,,,,,,,,,,,,,,,,,,,,,,,,,,,,0,8,8,3,1,VG4.mp4,,,,,,,,,,,
,,,,,,,,,,,thollard,2021-03-26_18h35.02.287,InstructionMarkovVideoG,2020.2.6,MacIntel,60,,,,,,,,,,,,,,,,,,,,,,,,,,,,,,,,,,,,,,,,,,,,,,,0,9,9,8,1,VG9.mp4,,,,,,,,,,,
,,,,i,3.076945,,,,,,thollard,2021-03-26_18h35.02.287,InstructionMarkovVideoG,2020.2.6,MacIntel,60,,,,,,,,,,196,0.39,0.74,,,,1,e,2.46556,1,,,,,,-0.02,0.01,0,0.26,-0.01,0.25,,,,,,,,1,0,15.47931,9,0,1.273285,2,0,2.78003,,,,,,,space,3.118525,0,0,0,195,1,,,,
,,,,i,1.74011,,,,,,thollard,2021-03-26_18h35.02.287,InstructionMarkovVideoG,2020.2.6,MacIntel,60,,,,,,,,,,45,0.72,0.65,,,,1,e,0.43016,1,,,,,,0.03,0.03,0.01,0.6,0.04,0.73,,,,,,,,,,,,,,,,,,,,,,,,,0,1,1,44,1,,,,
,,,,i,2.845795,,,,,,thollard,2021-03-26_18h35.02.287,InstructionMarkovVideoG,2020.2.6,MacIntel,60,,,,,,,,,,43,0.71,0.61,,,,0,e,2.31877,1,,,,,,-0.01,-0.03,-0.02,0.57,0.05,0.69,,,,,,,,,,,,,,,,,,,,,,,,,0,2,2,42,1,,,,
,,,,i,0.441485,,,,,,thollard,2021-03-26_18h35.02.287,InstructionMarkovVideoG,2020.2.6,MacIntel,60,,,,,,,,,,127,0.67,0.72,,,,0,e,0.95026,1,,,,,,0.01,0,0.02,0.41,-0.01,0.34,,,,,,,,,,,,,,,,,,,,,,,,,0,3,3,126,1,,,,
,,,,i,0.4549,,,,,,thollard,2021-03-26_18h35.02.287,InstructionMarkovVideoG,2020.2.6,MacIntel,60,,,,,,,,,,85,0.74,0.49,,,,0,e,0.805185,1,,,,,,0.05,-0.01,0.01,0.34,-0.01,0.46,,,,,,,,,,,,,,,,,,,,,,,,,0,4,4,84,1,,,,
,,,,i,0.6395,,,,,,thollard,2021-03-26_18h35.02.287,InstructionMarkovVideoG,2020.2.6,MacIntel,60,,,,,,,,,,60,0.61,0.55,,,,1,e,2.20261,1,,,,,,0.01,0,-0.03,0.51,0,0.49,,,,,,,,,,,,,,,,,,,,,,,,,0,5,5,59,1,,,,
,,,,i,0.888665,,,,,,thollard,2021-03-26_18h35.02.287,InstructionMarkovVideoG,2020.2.6,MacIntel,60,,,,,,,,,,181,0.4,0.69,,,,1,e,1.22645,1,,,,,,-0.01,0.04,-0.02,0.4,0,0.27,,,,,,,,,,,,,,,,,,,,,,,,,0,6,6,180,1,,,,
,,,,i,0.38182,,,,,,thollard,2021-03-26_18h35.02.287,InstructionMarkovVideoG,2020.2.6,MacIntel,60,,,,,,,,,,22,0.67,0.57,,,,0,e,0.74893,0,,,,,,0.03,0.01,0.01,0.55,-0.01,0.68,,,,,,,,,,,,,,,,,,,,,,,,,0,7,7,21,1,,,,
,,,,i,0.88978,,,,,,thollard,2021-03-26_18h35.02.287,InstructionMarkovVideoG,2020.2.6,MacIntel,60,,,,,,,,,,141,0.7,0.7,,,,1,e,0.617035,0,,,,,,0,-0.02,0.02,0.52,-0.01,0.26,,,,,,,,,,,,,,,,,,,,,,,,,0,8,8,140,1,,,,
,,,,e,0.772485,,,,,,thollard,2021-03-26_18h35.02.287,InstructionMarkovVideoG,2020.2.6,MacIntel,60,,,,,,,,,,14,0.67,0.67,,,,1,e,1.536035,1,,,,,,-0.01,0.01,-0.01,0.62,0.02,0.71,,,,,,,,,,,,,,,,,,,,,,,,,0,9,9,13,1,,,,
,,,,e,0.52477,,,,,,thollard,2021-03-26_18h35.02.287,InstructionMarkovVideoG,2020.2.6,MacIntel,60,,,,,,,,,,74,0.75,0.51,,,,1,e,1.15201,1,,,,,,0.01,-0.03,-0.04,0.44,-0.02,0.49,,,,,,,,,,,,,,,,,,,,,,,,,0,10,10,73,1,,,,
,,,,e,0.738175,,,,,,thollard,2021-03-26_18h35.02.287,InstructionMarkovVideoG,2020.2.6,MacIntel,60,,,,,,,,,,70,0.66,0.51,,,,0,e,0.799585,0,,,,,,0.04,0.01,-0.03,0.52,0.02,0.46,,,,,,,,,,,,,,,,,,,,,,,,,0,11,11,69,1,,,,
,,,,e,0.7743,,,,,,thollard,2021-03-26_18h35.02.287,InstructionMarkovVideoG,2020.2.6,MacIntel,60,,,,,,,,,,78,0.74,0.54,,,,1,i,0.55313,1,,,,,,0.04,0.01,-0.03,0.42,-0.02,0.52,,,,,,,,,,,,,,,,,,,,,,,,,0,12,12,77,1,,,,
,,,,e,1.560215,,,,,,thollard,2021-03-26_18h35.02.287,InstructionMarkovVideoG,2020.2.6,MacIntel,60,,,,,,,,,,31,0.73,0.62,,,,1,i,0.451615,1,,,,,,0.02,0,-0.03,0.61,-0.01,0.69,,,,,,,,,,,,,,,,,,,,,,,,,0,13,13,30,1,,,,
,,,,e,0.521895,,,,,,thollard,2021-03-26_18h35.02.287,InstructionMarkovVideoG,2020.2.6,MacIntel,60,,,,,,,,,,72,0.74,0.53,,,,1,i,0.59859,0,,,,,,0.05,0.01,0,0.51,-0.02,0.47,,,,,,,,,,,,,,,,,,,,,,,,,0,14,14,71,1,,,,
,,,,i,1.140715,,,,,,thollard,2021-03-26_18h35.02.287,InstructionMarkovVideoG,2020.2.6,MacIntel,60,,,,,,,,,,129,0.68,0.72,,,,1,e,0.218655,0,,,,,,0.02,0.01,0,0.42,0.01,0.32,,,,,,,,,,,,,,,,,,,,,,,,,0,15,15,128,1,,,,
,,,,e,1.45629,,,,,,thollard,2021-03-26_18h35.02.287,InstructionMarkovVideoG,2020.2.6,MacIntel,60,,,,,,,,,,161,0.62,0.7,,,,0,i,0.85176,1,,,,,,0,-0.02,-0.04,0.51,0,0.32,,,,,,,,,,,,,,,,,,,,,,,,,0,16,16,160,1,,,,
,,,,e,2.896325,,,,,,thollard,2021-03-26_18h35.02.287,InstructionMarkovVideoG,2020.2.6,MacIntel,60,,,,,,,,,,17,0.68,0.6,,,,1,e,1.04652,1,,,,,,0.02,-0.03,0,0.58,0.03,0.75,,,,,,,,,,,,,,,,,,,,,,,,,0,17,17,16,1,,,,
,,,,e,0.59445,,,,,,thollard,2021-03-26_18h35.02.287,InstructionMarkovVideoG,2020.2.6,MacIntel,60,,,,,,,,,,61,0.58,0.57,,,,0,i,0.548395,1,,,,,,-0.03,0.02,0.02,0.53,0.02,0.51,,,,,,,,,,,,,,,,,,,,,,,,,0,18,18,60,1,,,,
,,,,e,0.354895,,,,,,thollard,2021-03-26_18h35.02.287,InstructionMarkovVideoG,2020.2.6,MacIntel,60,,,,,,,,,,130,0.67,0.7,,,,1,e,0.749675,1,,,,,,-0.01,-0.02,-0.03,0.39,-0.05,0.27,,,,,,,,,,,,,,,,,,,,,,,,,0,19,19,129,1,,,,
,,,,i,0.53626,,,,,,thollard,2021-03-26_18h35.02.287,InstructionMarkovVideoG,2020.2.6,MacIntel,60,,,,,,,,,,108,0.63,0.67,,,,1,e,2.721665,0,,,,,,-0.01,-0.04,-0.03,0.36,0,0.41,,,,,,,,,,,,,,,,,,,,,,,,,0,20,20,107,1,,,,
,,,,i,1.373005,,,,,,thollard,2021-03-26_18h35.02.287,InstructionMarkovVideoG,2020.2.6,MacIntel,60,,,,,,,,,,147,0.56,0.72,,,,1,i,1.23799,0,,,,,,-0.05,-0.03,-0.02,0.58,0,0.3,,,,,,,,,,,,,,,,,,,,,,,,,0,21,21,146,1,,,,
,,,,e,0.47271,,,,,,thollard,2021-03-26_18h35.02.287,InstructionMarkovVideoG,2020.2.6,MacIntel,60,,,,,,,,,,179,0.44,0.67,,,,0,i,0.721045,0,,,,,,-0.02,-0.01,-0.01,0.41,-0.01,0.3,,,,,,,,,,,,,,,,,,,,,,,,,0,22,22,178,1,,,,
,,,,i,0.736775,,,,,,thollard,2021-03-26_18h35.02.287,InstructionMarkovVideoG,2020.2.6,MacIntel,60,,,,,,,,,,158,0.6,0.75,,,,0,e,0.818065,0,,,,,,0.02,0.03,0.04,0.54,0.02,0.29,,,,,,,,,,,,,,,,,,,,,,,,,0,23,23,157,1,,,,
,,,,i,0.369815,,,,,,thollard,2021-03-26_18h35.02.287,InstructionMarkovVideoG,2020.2.6,MacIntel,60,,,,,,,,,,168,0.57,0.64,,,,1,e,0.83151,0,,,,,,-0.02,-0.04,-0.03,0.44,0,0.3,,,,,,,,,,,,,,,,,,,,,,,,,0,24,24,167,1,,,,
,,,,i,0.5375,,,,,,thollard,2021-03-26_18h35.02.287,InstructionMarkovVideoG,2020.2.6,MacIntel,60,,,,,,,,,,166,0.58,0.69,,,,1,i,0.649555,1,,,,,,-0.05,0.01,-0.01,0.47,-0.01,0.26,,,,,,,,,,,,,,,,,,,,,,,,,0,25,25,165,1,,,,
,,,,i,0.403285,,,,,,thollard,2021-03-26_18h35.02.287,InstructionMarkovVideoG,2020.2.6,MacIntel,60,,,,,,,,,,114,0.68,0.6,,,,1,i,0.350885,0,,,,,,0.03,0.02,-0.01,0.34,-0.05,0.35,,,,,,,,,,,,,,,,,,,,,,,,,0,26,26,113,1,,,,
,,,,e,0.6383,,,,,,thollard,2021-03-26_18h35.02.287,InstructionMarkovVideoG,2020.2.6,MacIntel,60,,,,,,,,,,58,0.59,0.59,,,,1,i,0.606145,0,,,,,,-0.02,0,-0.03,0.57,-0.04,0.52,,,,,,,,,,,,,,,,,,,,,,,,,0,27,27,57,1,,,,
,,,,i,1.80945,,,,,,thollard,2021-03-26_18h35.02.287,InstructionMarkovVideoG,2020.2.6,MacIntel,60,,,,,,,,,,189,0.41,0.67,,,,0,e,0.38239,1,,,,,,-0.02,0.02,-0.02,0.29,-0.02,0.28,,,,,,,,,,,,,,,,,,,,,,,,,0,28,28,188,1,,,,
,,,,i,0.290685,,,,,,thollard,2021-03-26_18h35.02.287,InstructionMarkovVideoG,2020.2.6,MacIntel,60,,,,,,,,,,132,0.73,0.72,,,,0,e,1.114875,0,,,,,,0.01,-0.01,0,0.39,0.02,0.29,,,,,,,,,,,,,,,,,,,,,,,,,0,29,29,131,1,,,,
,,,,i,0.29325,,,,,,thollard,2021-03-26_18h35.02.287,InstructionMarkovVideoG,2020.2.6,MacIntel,60,,,,,,,,,,47,0.72,0.63,,,,0,e,0.71651,0,,,,,,0.02,0.01,-0.02,0.59,-0.04,0.64,,,,,,,,,,,,,,,,,,,,,,,,,0,30,30,46,1,,,,
,,,,e,0.538375,,,,,,thollard,2021-03-26_18h35.02.287,InstructionMarkovVideoG,2020.2.6,MacIntel,60,,,,,,,,,,165,0.63,0.68,,,,1,i,1.691845,1,,,,,,0,-0.01,0,0.48,-0.06,0.27,,,,,,,,,,,,,,,,,,,,,,,,,0,31,31,164,1,,,,
,,,,e,1.35717,,,,,,thollard,2021-03-26_18h35.02.287,InstructionMarkovVideoG,2020.2.6,MacIntel,60,,,,,,,,,,42,0.72,0.64,,,,0,i,0.833715,1,,,,,,0.02,0,-0.02,0.59,0.06,0.64,,,,,,,,,,,,,,,,,,,,,,,,,0,32,32,41,1,,,,
,,,,i,2.23714,,,,,,thollard,2021-03-26_18h35.02.287,InstructionMarkovVideoG,2020.2.6,MacIntel,60,,,,,,,,,,193,0.35,0.74,,,,0,e,1.334545,1,,,,,,-0.01,0,-0.02,0.27,-0.01,0.27,,,,,,,,,,,,,,,,,,,,,,,,,0,33,33,192,1,,,,
,,,,i,0.552905,,,,,,thollard,2021-03-26_18h35.02.287,InstructionMarkovVideoG,2020.2.6,MacIntel,60,,,,,,,,,,24,0.71,0.63,,,,1,i,0.766845,0,,,,,,0,0.02,-0.01,0.55,0.02,0.71,,,,,,,,,,,,,,,,,,,,,,,,,0,34,34,23,1,,,,
,,,,i,0.4045,,,,,,thollard,2021-03-26_18h35.02.287,InstructionMarkovVideoG,2020.2.6,MacIntel,60,,,,,,,,,,116,0.67,0.65,,,,1,i,0.716015,1,,,,,,-0.01,0.02,0.02,0.38,-0.02,0.35,,,,,,,,,,,,,,,,,,,,,,,,,0,35,35,115,1,,,,
,,,,i,1.03932,,,,,,thollard,2021-03-26_18h35.02.287,InstructionMarkovVideoG,2020.2.6,MacIntel,60,,,,,,,,,,34,0.7,0.6,,,,1,i,0.51919,1,,,,,,0.01,-0.01,0,0.62,0.01,0.74,,,,,,,,,,,,,,,,,,,,,,,,,0,36,36,33,1,,,,
,,,,i,0.607615,,,,,,thollard,2021-03-26_18h35.02.287,InstructionMarkovVideoG,2020.2.6,MacIntel,60,,,,,,,,,,10,0.68,0.64,,,,1,i,0.52104,1,,,,,,0.01,0.05,0,0.6,0.04,0.7,,,,,,,,,,,,,,,,,,,,,,,,,0,37,37,9,1,,,,
,,,,i,0.504465,,,,,,thollard,2021-03-26_18h35.02.287,InstructionMarkovVideoG,2020.2.6,MacIntel,60,,,,,,,,,,46,0.74,0.62,,,,1,i,0.450245,1,,,,,,0.02,-0.03,0.01,0.61,-0.05,0.68,,,,,,,,,,,,,,,,,,,,,,,,,0,38,38,45,1,,,,
,,,,i,0.42115,,,,,,thollard,2021-03-26_18h35.02.287,InstructionMarkovVideoG,2020.2.6,MacIntel,60,,,,,,,,,,51,0.62,0.66,,,,0,i,0.321635,1,,,,,,-0.01,0.04,0.05,0.59,0.01,0.67,,,,,,,,,,,,,,,,,,,,,,,,,0,39,39,50,1,,,,
,,,,i,0.543685,,,,,,thollard,2021-03-26_18h35.02.287,InstructionMarkovVideoG,2020.2.6,MacIntel,60,,,,,,,,,,13,0.68,0.66,,,,1,i,0.42192,0,,,,,,0.04,0,0.01,0.63,-0.03,0.69,,,,,,,,,,,,,,,,,,,,,,,,,0,40,40,12,1,,,,
,,,,i,0.31369,,,,,,thollard,2021-03-26_18h35.02.287,InstructionMarkovVideoG,2020.2.6,MacIntel,60,,,,,,,,,,4,0.59,0.54,,,,0,e,0.25006,0,,,,,,-0.01,0.03,0,0.53,0.04,0.57,,,,,,,,,,,,,,,,,,,,,,,,,0,41,41,3,1,,,,
,,,,i,0.437465,,,,,,thollard,2021-03-26_18h35.02.287,InstructionMarkovVideoG,2020.2.6,MacIntel,60,,,,,,,,,,50,0.63,0.62,,,,1,i,0.348355,0,,,,,,-0.02,-0.01,-0.01,0.54,0,0.66,,,,,,,,,,,,,,,,,,,,,,,,,0,42,42,49,1,,,,
,,,,e,0.406405,,,,,,thollard,2021-03-26_18h35.02.287,InstructionMarkovVideoG,2020.2.6,MacIntel,60,,,,,,,,,,133,0.74,0.74,,,,1,e,0.313995,1,,,,,,0.01,0.02,0,0.39,0.02,0.31,,,,,,,,,,,,,,,,,,,,,,,,,0,43,43,132,1,,,,
,,,,e,0.421865,,,,,,thollard,2021-03-26_18h35.02.287,InstructionMarkovVideoG,2020.2.6,MacIntel,60,,,,,,,,,,101,0.69,0.57,,,,1,i,0.617415,0,,,,,,0,-0.01,0.04,0.38,-0.06,0.44,,,,,,,,,,,,,,,,,,,,,,,,,0,44,44,100,1,,,,
,,,,e,0.386655,,,,,,thollard,2021-03-26_18h35.02.287,InstructionMarkovVideoG,2020.2.6,MacIntel,60,,,,,,,,,,92,0.65,0.54,,,,1,i,1.025785,1,,,,,,0,-0.02,-0.03,0.29,0.03,0.56,,,,,,,,,,,,,,,,,,,,,,,,,0,45,45,91,1,,,,
,,,,e,0.806435,,,,,,thollard,2021-03-26_18h35.02.287,InstructionMarkovVideoG,2020.2.6,MacIntel,60,,,,,,,,,,19,0.71,0.58,,,,1,i,0.238265,1,,,,,,0.02,-0.05,-0.03,0.56,0.01,0.73,,,,,,,,,,,,,,,,,,,,,,,,,0,46,46,18,1,,,,
,,,,e,0.307145,,,,,,thollard,2021-03-26_18h35.02.287,InstructionMarkovVideoG,2020.2.6,MacIntel,60,,,,,,,,,,64,0.55,0.57,,,,1,i,0.83416,0,,,,,,-0.01,-0.01,-0.01,0.52,-0.02,0.44,,,,,,,,,,,,,,,,,,,,,,,,,0,47,47,63,1,,,,
,,,,e,1.03903,,,,,,thollard,2021-03-26_18h35.02.287,InstructionMarkovVideoG,2020.2.6,MacIntel,60,,,,,,,,,,182,0.4,0.7,,,,0,e,0.448695,0,,,,,,0,0.01,-0.03,0.37,0.01,0.28,,,,,,,,,,,,,,,,,,,,,,,,,0,48,48,181,1,,,,
,,,,i,0.602765,,,,,,thollard,2021-03-26_18h35.02.287,InstructionMarkovVideoG,2020.2.6,MacIntel,60,,,,,,,,,,44,0.69,0.62,,,,1,e,0.3492,0,,,,,,-0.02,0.01,0.02,0.59,0,0.69,,,,,,,,,,,,,,,,,,,,,,,,,0,49,49,43,1,,,,
,,,,i,0.25835,,,,,,thollard,2021-03-26_18h35.02.287,InstructionMarkovVideoG,2020.2.6,MacIntel,60,,,,,,,,,,140,0.7,0.72,,,,1,i,0.38421,0,,,,,,0.03,-0.02,0.01,0.5,-0.02,0.27,,,,,,,,,,,,,,,,,,,,,,,,,0,50,50,139,1,,,,
,,,,i,0.321325,,,,,,thollard,2021-03-26_18h35.02.287,InstructionMarkovVideoG,2020.2.6,MacIntel,60,,,,,,,,,,81,0.73,0.51,,,,1,i,0.758995,0,,,,,,0,-0.02,-0.05,0.36,-0.01,0.52,,,,,,,,,,,,,,,,,,,,,,,,,0,51,51,80,1,,,,
,,,,i,0.41265,,,,,,thollard,2021-03-26_18h35.02.287,InstructionMarkovVideoG,2020.2.6,MacIntel,60,,,,,,,,,,186,0.47,0.7,,,,1,e,0.351515,0,,,,,,0.02,0,-0.05,0.27,0.03,0.29,,,,,,,,,,,,,,,,,,,,,,,,,0,52,52,185,1,,,,
,,,,e,0.30399,,,,,,thollard,2021-03-26_18h35.02.287,InstructionMarkovVideoG,2020.2.6,MacIntel,60,,,,,,,,,,177,0.49,0.68,,,,0,i,0.485625,0,,,,,,0.02,0,-0.01,0.39,-0.04,0.27,,,,,,,,,,,,,,,,,,,,,,,,,0,53,53,176,1,,,,
,,,,i,0.45523,,,,,,thollard,2021-03-26_18h35.02.287,InstructionMarkovVideoG,2020.2.6,MacIntel,60,,,,,,,,,,28,0.7,0.64,,,,1,e,0.416155,1,,,,,,-0.01,0.01,0.01,0.59,-0.01,0.69,,,,,,,,,,,,,,,,,,,,,,,,,0,54,54,27,1,,,,
,,,,i,1.246935,,,,,,thollard,2021-03-26_18h35.02.287,InstructionMarkovVideoG,2020.2.6,MacIntel,60,,,,,,,,,,178,0.46,0.68,,,,0,e,0.481035,0,,,,,,-0.03,0,0.03,0.42,-0.04,0.31,,,,,,,,,,,,,,,,,,,,,,,,,0,55,55,177,1,,,,
,,,,i,0.80329,,,,,,thollard,2021-03-26_18h35.02.287,InstructionMarkovVideoG,2020.2.6,MacIntel,60,,,,,,,,,,188,0.43,0.65,,,,0,i,0.5215,1,,,,,,0.01,-0.04,0,0.31,0.01,0.26,,,,,,,,,,,,,,,,,,,,,,,,,0,56,56,187,1,,,,
,,,,i,0.941125,,,,,,thollard,2021-03-26_18h35.02.287,InstructionMarkovVideoG,2020.2.6,MacIntel,60,,,,,,,,,,120,0.69,0.71,,,,1,i,1.100575,0,,,,,,0,0.03,0,0.43,0,0.27,,,,,,,,,,,,,,,,,,,,,,,,,0,57,57,119,1,,,,
,,,,e,0.85632,,,,,,thollard,2021-03-26_18h35.02.287,InstructionMarkovVideoG,2020.2.6,MacIntel,60,,,,,,,,,,8,0.65,0.56,,,,1,e,0.76694,1,,,,,,0.04,0.01,0.06,0.62,-0.01,0.64,,,,,,,,,,,,,,,,,,,,,,,,,0,58,58,7,1,,,,
,,,,e,1.61171,,,,,,thollard,2021-03-26_18h35.02.287,InstructionMarkovVideoG,2020.2.6,MacIntel,60,,,,,,,,,,89,0.69,0.56,,,,1,e,3.761715,1,,,,,,-0.03,0.01,0.02,0.35,-0.03,0.45,,,,,,,,,,,,,,,,,,,,,,,,,0,59,59,88,1,,,,
,,,,e,2.432955,,,,,,thollard,2021-03-26_18h35.02.287,InstructionMarkovVideoG,2020.2.6,MacIntel,60,,,,,,,,,,144,0.66,0.74,,,,0,e,0.621515,1,,,,,,-0.02,0.03,0,0.61,0.01,0.27,,,,,,,,,,,,,,,,,,,,,,,,,0,60,60,143,1,,,,
,,,,e,0.7111,,,,,,thollard,2021-03-26_18h35.02.287,InstructionMarkovVideoG,2020.2.6,MacIntel,60,,,,,,,,,,100,0.69,0.58,,,,0,e,0.48381,0,,,,,,0.01,0.07,-0.01,0.34,0.01,0.5,,,,,,,,,,,,,,,,,,,,,,,,,0,61,61,99,1,,,,
,,,,i,0.971785,,,,,,thollard,2021-03-26_18h35.02.287,InstructionMarkovVideoG,2020.2.6,MacIntel,60,,,,,,,,,,103,0.66,0.66,,,,1,i,0.56642,0,,,,,,-0.02,0.05,0,0.37,0.02,0.48,,,,,,,,,,,,,,,,,,,,,,,,,0,62,62,102,1,,,,
,,,,e,0.425425,,,,,,thollard,2021-03-26_18h35.02.287,InstructionMarkovVideoG,2020.2.6,MacIntel,60,,,,,,,,,,200,0.36,0.72,,,,1,e,0.603455,1,,,,,,-0.04,-0.01,0.02,0.3,-0.05,0.3,,,,,,,,,,,,,,,,,,,,,,,,,0,63,63,199,1,,,,
,,,,e,1.022555,,,,,,thollard,2021-03-26_18h35.02.287,InstructionMarkovVideoG,2020.2.6,MacIntel,60,,,,,,,,,,16,0.66,0.63,,,,0,e,0.551715,0,,,,,,0.01,-0.03,-0.02,0.58,0.02,0.72,,,,,,,,,,,,,,,,,,,,,,,,,0,64,64,15,1,,,,
,,,,e,0.333065,,,,,,thollard,2021-03-26_18h35.02.287,InstructionMarkovVideoG,2020.2.6,MacIntel,60,,,,,,,,,,180,0.41,0.65,,,,1,e,0.165445,1,,,,,,-0.03,-0.02,0.01,0.42,-0.03,0.27,,,,,,,,,,,,,,,,,,,,,,,,,0,65,65,179,1,,,,
,,,,e,1.488475,,,,,,thollard,2021-03-26_18h35.02.287,InstructionMarkovVideoG,2020.2.6,MacIntel,60,,,,,,,,,,91,0.65,0.56,,,,1,e,0.599145,0,,,,,,0,0,-0.03,0.32,0.04,0.53,,,,,,,,,,,,,,,,,,,,,,,,,0,66,66,90,1,,,,
,,,,i,2.32536,,,,,,thollard,2021-03-26_18h35.02.287,InstructionMarkovVideoG,2020.2.6,MacIntel,60,,,,,,,,,,159,0.63,0.74,,,,0,e,0.485165,1,,,,,,0.03,0.01,-0.02,0.52,0.06,0.35,,,,,,,,,,,,,,,,,,,,,,,,,0,67,67,158,1,,,,
,,,,i,0.337645,,,,,,thollard,2021-03-26_18h35.02.287,InstructionMarkovVideoG,2020.2.6,MacIntel,60,,,,,,,,,,149,0.58,0.73,,,,1,i,0.6368,0,,,,,,-0.01,0.02,-0.03,0.53,-0.06,0.25,,,,,,,,,,,,,,,,,,,,,,,,,0,68,68,148,1,,,,
,,,,e,0.647015,,,,,,thollard,2021-03-26_18h35.02.287,InstructionMarkovVideoG,2020.2.6,MacIntel,60,,,,,,,,,,174,0.49,0.73,,,,1,i,5.25467,1,,,,,,-0.02,0,-0.01,0.42,-0.02,0.29,,,,,,,,,,,,,,,,,,,,,,,,,0,69,69,173,1,,,,
,,,,e,0.5699,,,,,,thollard,2021-03-26_18h35.02.287,InstructionMarkovVideoG,2020.2.6,MacIntel,60,,,,,,,,,,126,0.66,0.72,,,,0,e,0.788205,0,,,,,,0,-0.01,0.01,0.39,-0.02,0.35,,,,,,,,,,,,,,,,,,,,,,,,,0,70,70,125,1,,,,
,,,,e,4.1959,,,,,,thollard,2021-03-26_18h35.02.287,InstructionMarkovVideoG,2020.2.6,MacIntel,60,,,,,,,,,,67,0.59,0.54,,,,1,e,0.547145,0,,,,,,0.02,-0.03,0.01,0.53,-0.03,0.46,,,,,,,,,,,,,,,,,,,,,,,,,0,71,71,66,1,,,,
,,,,i,0.12108,,,,,,thollard,2021-03-26_18h35.02.287,InstructionMarkovVideoG,2020.2.6,MacIntel,60,,,,,,,,,,117,0.66,0.65,,,,1,i,0.47387,0,,,,,,-0.01,0,-0.01,0.37,0,0.35,,,,,,,,,,,,,,,,,,,,,,,,,0,72,72,116,1,,,,
,,,,e,0.86194,,,,,,thollard,2021-03-26_18h35.02.287,InstructionMarkovVideoG,2020.2.6,MacIntel,60,,,,,,,,,,57,0.61,0.59,,,,0,e,0.45697,1,,,,,,-0.01,-0.02,0.02,0.6,0.01,0.56,,,,,,,,,,,,,,,,,,,,,,,,,0,73,73,56,1,,,,
,,,,e,0.74163,,,,,,thollard,2021-03-26_18h35.02.287,InstructionMarkovVideoG,2020.2.6,MacIntel,60,,,,,,,,,,121,0.71,0.69,,,,0,e,0.68028,0,,,,,,0.02,-0.02,-0.04,0.39,0.01,0.28,,,,,,,,,,,,,,,,,,,,,,,,,0,74,74,120,1,,,,
,,,,i,1.862875,,,,,,thollard,2021-03-26_18h35.02.287,InstructionMarkovVideoG,2020.2.6,MacIntel,60,,,,,,,,,,170,0.55,0.67,,,,1,e,0.64961,0,,,,,,-0.05,0.04,0,0.44,-0.01,0.28,,,,,,,,,,,,,,,,,,,,,,,,,0,75,75,169,1,,,,
,,,,i,0.85449,,,,,,thollard,2021-03-26_18h35.02.287,InstructionMarkovVideoG,2020.2.6,MacIntel,60,,,,,,,,,,29,0.71,0.62,,,,1,i,0.752465,0,,,,,,0.01,-0.02,0,0.59,0,0.69,,,,,,,,,,,,,,,,,,,,,,,,,0,76,76,28,1,,,,
,,,,e,1.388875,,,,,,thollard,2021-03-26_18h35.02.287,InstructionMarkovVideoG,2020.2.6,MacIntel,60,,,,,,,,,,102,0.68,0.61,,,,1,e,0.33286,1,,,,,,-0.01,0.04,-0.01,0.37,0.02,0.46,,,,,,,,,,,,,,,,,,,,,,,,,0,77,77,101,1,,,,
,,,,i,0.453175,,,,,,thollard,2021-03-26_18h35.02.287,InstructionMarkovVideoG,2020.2.6,MacIntel,60,,,,,,,,,,71,0.69,0.52,,,,1,i,0.48735,1,,,,,,0.03,0.01,-0.01,0.51,0.03,0.49,,,,,,,,,,,,,,,,,,,,,,,,,0,78,78,70,1,,,,
,,,,i,0.46945,,,,,,thollard,2021-03-26_18h35.02.287,InstructionMarkovVideoG,2020.2.6,MacIntel,60,,,,,,,,,,136,0.72,0.7,,,,1,i,0.487655,0,,,,,,-0.01,-0.02,0.04,0.47,-0.03,0.26,,,,,,,,,,,,,,,,,,,,,,,,,0,79,79,135,1,,,,
,,,,i,0.37167,,,,,,thollard,2021-03-26_18h35.02.287,InstructionMarkovVideoG,2020.2.6,MacIntel,60,,,,,,,,,,30,0.71,0.62,,,,1,i,0.72348,0,,,,,,0,0,0.05,0.64,0.01,0.7,,,,,,,,,,,,,,,,,,,,,,,,,0,80,80,29,1,,,,
,,,,e,0.289435,,,,,,thollard,2021-03-26_18h35.02.287,InstructionMarkovVideoG,2020.2.6,MacIntel,60,,,,,,,,,,162,0.65,0.69,,,,0,e,0.532275,1,,,,,,0.03,-0.01,0.04,0.55,0.03,0.35,,,,,,,,,,,,,,,,,,,,,,,,,0,81,81,161,1,,,,
,,,,e,0.30247,,,,,,thollard,2021-03-26_18h35.02.287,InstructionMarkovVideoG,2020.2.6,MacIntel,60,,,,,,,,,,112,0.64,0.63,,,,1,e,0.734545,1,,,,,,-0.02,-0.03,-0.01,0.34,-0.02,0.39,,,,,,,,,,,,,,,,,,,,,,,,,0,82,82,111,1,,,,
,,,,e,0.520415,,,,,,thollard,2021-03-26_18h35.02.287,InstructionMarkovVideoG,2020.2.6,MacIntel,60,,,,,,,,,,115,0.68,0.63,,,,0,e,0.539315,0,,,,,,0,0.03,0.02,0.36,0.02,0.37,,,,,,,,,,,,,,,,,,,,,,,,,0,83,83,114,1,,,,
,,,,e,1.88303,,,,,,thollard,2021-03-26_18h35.02.287,InstructionMarkovVideoG,2020.2.6,MacIntel,60,,,,,,,,,,38,0.7,0.62,,,,1,e,0.483055,1,,,,,,0.02,0,0.02,0.59,0.04,0.7,,,,,,,,,,,,,,,,,,,,,,,,,0,84,84,37,1,,,,
,,,,e,5.803545,,,,,,thollard,2021-03-26_18h35.02.287,InstructionMarkovVideoG,2020.2.6,MacIntel,60,,,,,,,,,,190,0.38,0.69,,,,1,e,0.633025,0,,,,,,-0.03,0.02,0.01,0.3,0,0.28,,,,,,,,,,,,,,,,,,,,,,,,,0,85,85,189,1,,,,
,,,,i,0.43797,,,,,,thollard,2021-03-26_18h35.02.287,InstructionMarkovVideoG,2020.2.6,MacIntel,60,,,,,,,,,,40,0.7,0.6,,,,1,i,0.466035,1,,,,,,0,-0.02,0,0.61,0,0.73,,,,,,,,,,,,,,,,,,,,,,,,,0,86,86,39,1,,,,
,,,,i,0.355695,,,,,,thollard,2021-03-26_18h35.02.287,InstructionMarkovVideoG,2020.2.6,MacIntel,60,,,,,,,,,,12,0.64,0.66,,,,0,i,0.36665,1,,,,,,-0.02,0.01,0.01,0.62,0.05,0.72,,,,,,,,,,,,,,,,,,,,,,,,,0,87,87,11,1,,,,
,,,,i,0.88954,,,,,,thollard,2021-03-26_18h35.02.287,InstructionMarkovVideoG,2020.2.6,MacIntel,60,,,,,,,,,,164,0.63,0.69,,,,1,i,0.38394,0,,,,,,-0.03,0,-0.03,0.48,-0.03,0.33,,,,,,,,,,,,,,,,,,,,,,,,,0,88,88,163,1,,,,
,,,,e,0.444075,,,,,,thollard,2021-03-26_18h35.02.287,InstructionMarkovVideoG,2020.2.6,MacIntel,60,,,,,,,,,,124,0.71,0.75,,,,1,e,0.06392,1,,,,,,-0.02,0.04,0,0.4,0.01,0.33,,,,,,,,,,,,,,,,,,,,,,,,,0,89,89,123,1,,,,
,,,,e,2.651895,,,,,,thollard,2021-03-26_18h35.02.287,InstructionMarkovVideoG,2020.2.6,MacIntel,60,,,,,,,,,,69,0.62,0.5,,,,1,e,0.529485,1,,,,,,0.01,-0.03,0.01,0.55,-0.03,0.44,,,,,,,,,,,,,,,,,,,,,,,,,0,90,90,68,1,,,,
,,,,e,0.486135,,,,,,thollard,2021-03-26_18h35.02.287,InstructionMarkovVideoG,2020.2.6,MacIntel,60,,,,,,,,,,145,0.65,0.74,,,,1,e,0.61631,1,,,,,,-0.01,0,-0.01,0.6,0,0.27,,,,,,,,,,,,,,,,,,,,,,,,,0,91,91,144,1,,,,
,,,,e,0.389685,,,,,,thollard,2021-03-26_18h35.02.287,InstructionMarkovVideoG,2020.2.6,MacIntel,60,,,,,,,,,,66,0.57,0.57,,,,0,e,0.617855,0,,,,,,0.02,0.02,0.01,0.52,0,0.49,,,,,,,,,,,,,,,,,,,,,,,,,0,92,92,65,1,,,,
,,,,e,0.288995,,,,,,thollard,2021-03-26_18h35.02.287,InstructionMarkovVideoG,2020.2.6,MacIntel,60,,,,,,,,,,172,0.52,0.71,,,,1,i,0.352965,0,,,,,,-0.02,0.02,0.02,0.45,0.03,0.29,,,,,,,,,,,,,,,,,,,,,,,,,0,93,93,171,1,,,,
,,,,e,1.35696,,,,,,thollard,2021-03-26_18h35.02.287,InstructionMarkovVideoG,2020.2.6,MacIntel,60,,,,,,,,,,68,0.61,0.53,,,,1,e,0.550345,1,,,,,,0.02,-0.01,0.01,0.54,0.01,0.47,,,,,,,,,,,,,,,,,,,,,,,,,0,94,94,67,1,,,,
,,,,e,0.67476,,,,,,thollard,2021-03-26_18h35.02.287,InstructionMarkovVideoG,2020.2.6,MacIntel,60,,,,,,,,,,128,0.66,0.71,,,,1,i,0.672205,1,,,,,,-0.01,-0.01,0.01,0.42,-0.03,0.31,,,,,,,,,,,,,,,,,,,,,,,,,0,95,95,127,1,,,,
,,,,i,1.15639,,,,,,thollard,2021-03-26_18h35.02.287,InstructionMarkovVideoG,2020.2.6,MacIntel,60,,,,,,,,,,143,0.68,0.71,,,,1,e,0.2839,0,,,,,,-0.02,0.03,0.03,0.61,0.01,0.26,,,,,,,,,,,,,,,,,,,,,,,,,0,96,96,142,1,,,,
,,,,i,0.378595,,,,,,thollard,2021-03-26_18h35.02.287,InstructionMarkovVideoG,2020.2.6,MacIntel,60,,,,,,,,,,36,0.68,0.58,,,,1,i,0.440465,1,,,,,,-0.05,-0.03,0,0.6,0.01,0.73,,,,,,,,,,,,,,,,,,,,,,,,,0,97,97,35,1,,,,
,,,,i,0.790725,,,,,,thollard,2021-03-26_18h35.02.287,InstructionMarkovVideoG,2020.2.6,MacIntel,60,,,,,,,,,,197,0.43,0.72,,,,0,i,0.501895,0,,,,,,0.04,0.02,0.05,0.31,-0.01,0.26,,,,,,,,,,,,,,,,,,,,,,,,,0,98,98,196,1,,,,
,,,,e,0.36911,,,,,,thollard,2021-03-26_18h35.02.287,InstructionMarkovVideoG,2020.2.6,MacIntel,60,,,,,,,,,,153,0.62,0.7,,,,0,e,0.665385,0,,,,,,-0.01,0.02,0.03,0.52,0.01,0.27,,,,,,,,,,,,,,,,,,,,,,,,,0,99,99,152,1,,,,
,,,,e,1.8964,,,,,,thollard,2021-03-26_18h35.02.287,InstructionMarkovVideoG,2020.2.6,MacIntel,60,,,,,,,,,,113,0.65,0.58,,,,1,e,0.281,1,,,,,,0.01,-0.05,0.01,0.35,0.01,0.4,,,,,,,,,,,,,,,,,,,,,,,,,0,100,100,112,1,,,,
,,,,e,0.53879,,,,,,thollard,2021-03-26_18h35.02.287,InstructionMarkovVideoG,2020.2.6,MacIntel,60,,,,,,,,,,87,0.7,0.53,,,,0,e,0.46403,0,,,,,,-0.03,0.04,0,0.35,0.02,0.48,,,,,,,,,,,,,,,,,,,,,,,,,0,101,101,86,1,,,,
,,,,i,0.42272,,,,,,thollard,2021-03-26_18h35.02.287,InstructionMarkovVideoG,2020.2.6,MacIntel,60,,,,,,,,,,1,0.55,0.51,,,,1,i,0.41568,1,,,,,,0.05,0.01,0.01,0.51,0.01,0.51,,,,,,,,,,,,,,,,,,,,,,,,,0,102,102,0,1,,,,
,,,,i,1.425385,,,,,,thollard,2021-03-26_18h35.02.287,InstructionMarkovVideoG,2020.2.6,MacIntel,60,,,,,,,,,,125,0.66,0.73,,,,0,i,0.28241,0,,,,,,0.05,0.02,-0.02,0.38,0.04,0.37,,,,,,,,,,,,,,,,,,,,,,,,,0,103,103,124,1,,,,
,,,,i,0.443605,,,,,,thollard,2021-03-26_18h35.02.287,InstructionMarkovVideoG,2020.2.6,MacIntel,60,,,,,,,,,,109,0.65,0.67,,,,1,i,0.487305,1,,,,,,0.02,0,-0.01,0.35,0.02,0.43,,,,,,,,,,,,,,,,,,,,,,,,,0,104,104,108,1,,,,
,,,,i,1.79166,,,,,,thollard,2021-03-26_18h35.02.287,InstructionMarkovVideoG,2020.2.6,MacIntel,60,,,,,,,,,,152,0.63,0.68,,,,1,i,0.09827,0,,,,,,0.02,-0.02,-0.01,0.49,0.01,0.26,,,,,,,,,,,,,,,,,,,,,,,,,0,105,105,151,1,,,,
,,,,e,0.78754,,,,,,thollard,2021-03-26_18h35.02.287,InstructionMarkovVideoG,2020.2.6,MacIntel,60,,,,,,,,,,20,0.7,0.56,,,,0,e,0.550305,0,,,,,,-0.01,-0.02,-0.01,0.55,0,0.73,,,,,,,,,,,,,,,,,,,,,,,,,0,106,106,19,1,,,,
,,,,i,0.488945,,,,,,thollard,2021-03-26_18h35.02.287,InstructionMarkovVideoG,2020.2.6,MacIntel,60,,,,,,,,,,192,0.36,0.74,,,,1,i,0.568935,0,,,,,,0,0,-0.02,0.25,0.01,0.28,,,,,,,,,,,,,,,,,,,,,,,,,0,107,107,191,1,,,,
,,,,e,5.583845,,,,,,thollard,2021-03-26_18h35.02.287,InstructionMarkovVideoG,2020.2.6,MacIntel,60,,,,,,,,,,7,0.61,0.55,,,,1,e,0.130735,0,,,,,,0.04,0,0,0.56,0.06,0.65,,,,,,,,,,,,,,,,,,,,,,,,,0,108,108,6,1,,,,
,,,,e,0.08892,,,,,,thollard,2021-03-26_18h35.02.287,InstructionMarkovVideoG,2020.2.6,MacIntel,60,,,,,,,,,,15,0.65,0.66,,,,0,e,0.468485,0,,,,,,-0.02,-0.01,-0.02,0.6,-0.01,0.7,,,,,,,,,,,,,,,,,,,,,,,,,0,109,109,14,1,,,,
,,,,e,0.04197,,,,,,thollard,2021-03-26_18h35.02.287,InstructionMarkovVideoG,2020.2.6,MacIntel,60,,,,,,,,,,65,0.55,0.55,,,,0,i,0.68808,1,,,,,,0,-0.02,-0.01,0.51,0.05,0.49,,,,,,,,,,,,,,,,,,,,,,,,,0,110,110,64,1,,,,
,,,,e,0.43973,,,,,,thollard,2021-03-26_18h35.02.287,InstructionMarkovVideoG,2020.2.6,MacIntel,60,,,,,,,,,,73,0.74,0.54,,,,1,i,0.71803,1,,,,,,0,0.01,-0.03,0.48,0.04,0.51,,,,,,,,,,,,,,,,,,,,,,,,,0,111,111,72,1,,,,
,,,,e,0.442945,,,,,,thollard,2021-03-26_18h35.02.287,InstructionMarkovVideoG,2020.2.6,MacIntel,60,,,,,,,,,,75,0.73,0.57,,,,1,i,0.434785,0,,,,,,0.02,0.06,0.04,0.48,0.01,0.5,,,,,,,,,,,,,,,,,,,,,,,,,0,112,112,74,1,,,,
,,,,e,0.272415,,,,,,thollard,2021-03-26_18h35.02.287,InstructionMarkovVideoG,2020.2.6,MacIntel,60,,,,,,,,,,107,0.64,0.71,,,,1,i,0.43297,1,,,,,,-0.01,-0.02,0,0.39,-0.02,0.41,,,,,,,,,,,,,,,,,,,,,,,,,0,113,113,106,1,,,,
,,,,e,0.25395,,,,,,thollard,2021-03-26_18h35.02.287,InstructionMarkovVideoG,2020.2.6,MacIntel,60,,,,,,,,,,163,0.66,0.69,,,,1,i,0.39927,0,,,,,,0.01,0,-0.04,0.51,0.01,0.36,,,,,,,,,,,,,,,,,,,,,,,,,0,114,114,162,1,,,,
,,,,e,0.35606,,,,,,thollard,2021-03-26_18h35.02.287,InstructionMarkovVideoG,2020.2.6,MacIntel,60,,,,,,,,,,171,0.54,0.69,,,,1,e,0.97285,1,,,,,,-0.01,0.02,-0.01,0.43,-0.02,0.26,,,,,,,,,,,,,,,,,,,,,,,,,0,115,115,170,1,,,,
,,,,e,0.273285,,,,,,thollard,2021-03-26_18h35.02.287,InstructionMarkovVideoG,2020.2.6,MacIntel,60,,,,,,,,,,184,0.45,0.7,,,,1,e,0.385665,0,,,,,,0,0,-0.02,0.34,-0.03,0.25,,,,,,,,,,,,,,,,,,,,,,,,,0,116,116,183,1,,,,
,,,,e,0.27307,,,,,,thollard,2021-03-26_18h35.02.287,InstructionMarkovVideoG,2020.2.6,MacIntel,60,,,,,,,,,,150,0.56,0.69,,,,1,e,0.33255,0,,,,,,-0.02,0.04,-0.02,0.51,-0.01,0.26,,,,,,,,,,,,,,,,,,,,,,,,,0,117,117,149,1,,,,
,,,,e,0.28995,,,,,,thollard,2021-03-26_18h35.02.287,InstructionMarkovVideoG,2020.2.6,MacIntel,60,,,,,,,,,,157,0.58,0.72,,,,0,e,0.86998,1,,,,,,0.01,0,0,0.5,-0.01,0.27,,,,,,,,,,,,,,,,,,,,,,,,,0,118,118,156,1,,,,
,,,,e,0.00876,,,,,,thollard,2021-03-26_18h35.02.287,InstructionMarkovVideoG,2020.2.6,MacIntel,60,,,,,,,,,,84,0.69,0.5,,,,1,i,0.53129,0,,,,,,0,0,-0.04,0.33,-0.02,0.47,,,,,,,,,,,,,,,,,,,,,,,,,0,119,119,83,1,,,,
,,,,e,0.17541,,,,,,thollard,2021-03-26_18h35.02.287,InstructionMarkovVideoG,2020.2.6,MacIntel,60,,,,,,,,,,80,0.73,0.53,,,,1,i,0.65511,0,,,,,,0.01,0.01,-0.01,0.41,-0.02,0.53,,,,,,,,,,,,,,,,,,,,,,,,,0,120,120,79,1,,,,
,,,,e,0.352165,,,,,,thollard,2021-03-26_18h35.02.287,InstructionMarkovVideoG,2020.2.6,MacIntel,60,,,,,,,,,,167,0.59,0.68,,,,1,i,0.84113,1,,,,,,0.01,-0.01,0,0.47,-0.04,0.3,,,,,,,,,,,,,,,,,,,,,,,,,0,121,121,166,1,,,,
,,,,e,0.42144,,,,,,thollard,2021-03-26_18h35.02.287,InstructionMarkovVideoG,2020.2.6,MacIntel,60,,,,,,,,,,99,0.68,0.51,,,,0,e,1.193735,0,,,,,,-0.01,-0.01,0.04,0.35,-0.03,0.49,,,,,,,,,,,,,,,,,,,,,,,,,0,122,122,98,1,,,,
,,,,e,0.606195,,,,,,thollard,2021-03-26_18h35.02.287,InstructionMarkovVideoG,2020.2.6,MacIntel,60,,,,,,,,,,79,0.72,0.52,,,,1,i,1.106945,0,,,,,,0.02,-0.02,0,0.42,0.03,0.55,,,,,,,,,,,,,,,,,,,,,,,,,0,123,123,78,1,,,,
,,,,e,0.09218,,,,,,thollard,2021-03-26_18h35.02.287,InstructionMarkovVideoG,2020.2.6,MacIntel,60,,,,,,,,,,154,0.59,0.68,,,,1,e,1.11795,1,,,,,,-0.03,-0.02,-0.04,0.48,-0.01,0.26,,,,,,,,,,,,,,,,,,,,,,,,,0,124,124,153,1,,,,
,,,,e,0.2715,,,,,,thollard,2021-03-26_18h35.02.287,InstructionMarkovVideoG,2020.2.6,MacIntel,60,,,,,,,,,,55,0.62,0.61,,,,1,e,0.66453,0,,,,,,0.02,-0.03,0.03,0.57,-0.02,0.58,,,,,,,,,,,,,,,,,,,,,,,,,0,125,125,54,1,,,,
,,,,i,0.370255,,,,,,thollard,2021-03-26_18h35.02.287,InstructionMarkovVideoG,2020.2.6,MacIntel,60,,,,,,,,,,27,0.71,0.63,,,,1,e,0.334425,0,,,,,,-0.02,0,-0.03,0.58,-0.01,0.7,,,,,,,,,,,,,,,,,,,,,,,,,0,126,126,26,1,,,,
,,,,i,0.310805,,,,,,thollard,2021-03-26_18h35.02.287,InstructionMarkovVideoG,2020.2.6,MacIntel,60,,,,,,,,,,5,0.58,0.55,,,,0,i,1.01178,1,,,,,,-0.01,0.01,0.02,0.55,0.02,0.59,,,,,,,,,,,,,,,,,,,,,,,,,0,127,127,4,1,,,,
,,,,i,0.25094,,,,,,thollard,2021-03-26_18h35.02.287,InstructionMarkovVideoG,2020.2.6,MacIntel,60,,,,,,,,,,2,0.55,0.48,,,,1,i,1.28463,1,,,,,,0,-0.03,0.01,0.52,0.01,0.52,,,,,,,,,,,,,,,,,,,,,,,,,0,128,128,1,1,,,,
,,,,i,0.23821,,,,,,thollard,2021-03-26_18h35.02.287,InstructionMarkovVideoG,2020.2.6,MacIntel,60,,,,,,,,,,35,0.73,0.61,,,,1,i,0.50516,1,,,,,,0.03,0.01,-0.02,0.6,-0.02,0.72,,,,,,,,,,,,,,,,,,,,,,,,,0,129,129,34,1,,,,
,,,,i,0.106295,,,,,,thollard,2021-03-26_18h35.02.287,InstructionMarkovVideoG,2020.2.6,MacIntel,60,,,,,,,,,,110,0.68,0.65,,,,1,i,0.40166,0,,,,,,0.03,-0.02,0,0.35,-0.01,0.42,,,,,,,,,,,,,,,,,,,,,,,,,0,130,130,109,1,,,,
,,,,i,0.108955,,,,,,thollard,2021-03-26_18h35.02.287,InstructionMarkovVideoG,2020.2.6,MacIntel,60,,,,,,,,,,137,0.74,0.73,,,,1,e,0.322955,1,,,,,,0.02,0.03,-0.01,0.46,0.02,0.28,,,,,,,,,,,,,,,,,,,,,,,,,0,131,131,136,1,,,,
,,,,i,0.277795,,,,,,thollard,2021-03-26_18h35.02.287,InstructionMarkovVideoG,2020.2.6,MacIntel,60,,,,,,,,,,119,0.69,0.68,,,,0,i,0.730095,1,,,,,,0.04,0.02,0.08,0.43,-0.03,0.27,,,,,,,,,,,,,,,,,,,,,,,,,0,132,132,118,1,,,,
,,,,i,0.32684,,,,,,thollard,2021-03-26_18h35.02.287,InstructionMarkovVideoG,2020.2.6,MacIntel,60,,,,,,,,,,11,0.66,0.65,,,,0,e,0.582955,1,,,,,,-0.02,0.01,0.01,0.61,-0.03,0.67,,,,,,,,,,,,,,,,,,,,,,,,,0,133,133,10,1,,,,
,,,,i,0.26544,,,,,,thollard,2021-03-26_18h35.02.287,InstructionMarkovVideoG,2020.2.6,MacIntel,60,,,,,,,,,,123,0.73,0.71,,,,1,i,0.88444,0,,,,,,0.04,0.02,0,0.4,0.01,0.32,,,,,,,,,,,,,,,,,,,,,,,,,0,134,134,122,1,,,,
,,,,i,0.22273,,,,,,thollard,2021-03-26_18h35.02.287,InstructionMarkovVideoG,2020.2.6,MacIntel,60,,,,,,,,,,82,0.67,0.51,,,,0,e,0.500625,1,,,,,,-0.06,0,-0.02,0.34,-0.03,0.49,,,,,,,,,,,,,,,,,,,,,,,,,0,135,135,81,1,,,,
,,,,i,0.254075,,,,,,thollard,2021-03-26_18h35.02.287,InstructionMarkovVideoG,2020.2.6,MacIntel,60,,,,,,,,,,52,0.62,0.62,,,,1,e,0.33279,0,,,,,,0,-0.04,-0.01,0.58,-0.04,0.63,,,,,,,,,,,,,,,,,,,,,,,,,0,136,136,51,1,,,,
,,,,i,0.12106,,,,,,thollard,2021-03-26_18h35.02.287,InstructionMarkovVideoG,2020.2.6,MacIntel,60,,,,,,,,,,56,0.62,0.61,,,,1,i,0.406625,1,,,,,,0,0,0.01,0.58,-0.03,0.55,,,,,,,,,,,,,,,,,,,,,,,,,0,137,137,55,1,,,,
,,,,i,0.25466,,,,,,thollard,2021-03-26_18h35.02.287,InstructionMarkovVideoG,2020.2.6,MacIntel,60,,,,,,,,,,76,0.73,0.56,,,,0,i,0.7375,0,,,,,,0,-0.01,-0.03,0.45,0.02,0.52,,,,,,,,,,,,,,,,,,,,,,,,,0,138,138,75,1,,,,
,,,,i,0.396335,,,,,,thollard,2021-03-26_18h35.02.287,InstructionMarkovVideoG,2020.2.6,MacIntel,60,,,,,,,,,,83,0.69,0.5,,,,1,i,0.903785,0,,,,,,0.02,-0.01,0.03,0.37,0,0.49,,,,,,,,,,,,,,,,,,,,,,,,,0,139,139,82,1,,,,
,,,,e,0.216675,,,,,,thollard,2021-03-26_18h35.02.287,InstructionMarkovVideoG,2020.2.6,MacIntel,60,,,,,,,,,,175,0.46,0.71,,,,1,i,0.482715,0,,,,,,-0.03,-0.02,-0.04,0.38,0.02,0.31,,,,,,,,,,,,,,,,,,,,,,,,,0,140,140,174,1,,,,
,,,,e,0.243435,,,,,,thollard,2021-03-26_18h35.02.287,InstructionMarkovVideoG,2020.2.6,MacIntel,60,,,,,,,,,,63,0.56,0.58,,,,1,e,0.5502,1,,,,,,-0.02,-0.01,0.02,0.53,-0.03,0.46,,,,,,,,,,,,,,,,,,,,,,,,,0,141,141,62,1,,,,
,,,,i,0.31036,,,,,,thollard,2021-03-26_18h35.02.287,InstructionMarkovVideoG,2020.2.6,MacIntel,60,,,,,,,,,,59,0.6,0.55,,,,0,e,0.319115,1,,,,,,0.01,-0.04,-0.03,0.54,-0.03,0.49,,,,,,,,,,,,,,,,,,,,,,,,,0,142,142,58,1,,,,
,,,,i,0.32116,,,,,,thollard,2021-03-26_18h35.02.287,InstructionMarkovVideoG,2020.2.6,MacIntel,60,,,,,,,,,,138,0.72,0.69,,,,1,e,0.33354,1,,,,,,0.02,-0.04,0.01,0.47,0,0.28,,,,,,,,,,,,,,,,,,,,,,,,,0,143,143,137,1,,,,
,,,,i,0.091065,,,,,,thollard,2021-03-26_18h35.02.287,InstructionMarkovVideoG,2020.2.6,MacIntel,60,,,,,,,,,,39,0.7,0.62,,,,0,e,0.314805,1,,,,,,0,0,0.02,0.61,0.03,0.73,,,,,,,,,,,,,,,,,,,,,,,,,0,144,144,38,1,,,,
,,,,i,0.13737,,,,,,thollard,2021-03-26_18h35.02.287,InstructionMarkovVideoG,2020.2.6,MacIntel,60,,,,,,,,,,53,0.62,0.62,,,,1,i,0.598915,1,,,,,,0,0,0,0.58,-0.01,0.62,,,,,,,,,,,,,,,,,,,,,,,,,0,145,145,52,1,,,,
,,,,e,0.6458,,,,,,thollard,2021-03-26_18h35.02.287,InstructionMarkovVideoG,2020.2.6,MacIntel,60,,,,,,,,,,48,0.72,0.62,,,,1,i,0.266625,0,,,,,,0,-0.01,0,0.59,0.04,0.68,,,,,,,,,,,,,,,,,,,,,,,,,0,146,146,47,1,,,,
,,,,e,0.300845,,,,,,thollard,2021-03-26_18h35.02.287,InstructionMarkovVideoG,2020.2.6,MacIntel,60,,,,,,,,,,135,0.73,0.72,,,,1,i,0.33722,0,,,,,,0.02,0,-0.03,0.43,-0.01,0.29,,,,,,,,,,,,,,,,,,,,,,,,,0,147,147,134,1,,,,
,,,,e,0.38747,,,,,,thollard,2021-03-26_18h35.02.287,InstructionMarkovVideoG,2020.2.6,MacIntel,60,,,,,,,,,,155,0.6,0.7,,,,1,i,0.63816,1,,,,,,0.01,0.02,0,0.48,-0.04,0.3,,,,,,,,,,,,,,,,,,,,,,,,,0,148,148,154,1,,,,
,,,,e,0.40425,,,,,,thollard,2021-03-26_18h35.02.287,InstructionMarkovVideoG,2020.2.6,MacIntel,60,,,,,,,,,,98,0.69,0.52,,,,1,i,0.316495,1,,,,,,0.03,-0.04,0,0.31,-0.04,0.52,,,,,,,,,,,,,,,,,,,,,,,,,0,149,149,97,1,,,,
,,,,e,0.268405,,,,,,thollard,2021-03-26_18h35.02.287,InstructionMarkovVideoG,2020.2.6,MacIntel,60,,,,,,,,,,151,0.61,0.7,,,,1,i,0.1327,1,,,,,,0.05,0.01,-0.01,0.5,-0.01,0.25,,,,,,,,,,,,,,,,,,,,,,,,,0,150,150,150,1,,,,
,,,,i,0.208395,,,,,,thollard,2021-03-26_18h35.02.287,InstructionMarkovVideoG,2020.2.6,MacIntel,60,,,,,,,,,,118,0.65,0.66,,,,1,i,0.015505,0,,,,,,-0.01,0.01,-0.02,0.35,-0.05,0.3,,,,,,,,,,,,,,,,,,,,,,,,,0,151,151,117,1,,,,
,,,,i,0.05303,,,,,,thollard,2021-03-26_18h35.02.287,InstructionMarkovVideoG,2020.2.6,MacIntel,60,,,,,,,,,,142,0.7,0.74,,,,1,i,0.017715,0,,,,,,0,0.04,0.06,0.58,-0.01,0.25,,,,,,,,,,,,,,,,,,,,,,,,,0,152,152,141,1,,,,
,,,,e,0.03791,,,,,,thollard,2021-03-26_18h35.02.287,InstructionMarkovVideoG,2020.2.6,MacIntel,60,,,,,,,,,,148,0.59,0.71,,,,0,e,0.098735,1,,,,,,0.03,-0.01,-0.02,0.56,0.01,0.31,,,,,,,,,,,,,,,,,,,,,,,,,0,153,153,147,1,,,,
,,,,i,0.00124,,,,,,thollard,2021-03-26_18h35.02.287,InstructionMarkovVideoG,2020.2.6,MacIntel,60,,,,,,,,,,18,0.69,0.63,,,,1,i,0.049775,1,,,,,,0.01,0.03,0.01,0.59,0.03,0.72,,,,,,,,,,,,,,,,,,,,,,,,,0,154,154,17,1,,,,
,,,,e,0.03749,,,,,,thollard,2021-03-26_18h35.02.287,InstructionMarkovVideoG,2020.2.6,MacIntel,60,,,,,,,,,,96,0.63,0.52,,,,1,i,0.038565,0,,,,,,0.03,-0.02,-0.01,0.27,0.05,0.55,,,,,,,,,,,,,,,,,,,,,,,,,0,155,155,95,1,,,,
,,,,e,0.14223,,,,,,thollard,2021-03-26_18h35.02.287,InstructionMarkovVideoG,2020.2.6,MacIntel,60,,,,,,,,,,95,0.6,0.54,,,,0,i,0.000805,1,,,,,,-0.02,0.02,-0.02,0.28,-0.04,0.5,,,,,,,,,,,,,,,,,,,,,,,,,0,156,156,94,1,,,,
,,,,i,0.057645,,,,,,thollard,2021-03-26_18h35.02.287,InstructionMarkovVideoG,2020.2.6,MacIntel,60,,,,,,,,,,169,0.6,0.63,,,,1,e,0.036,0,,,,,,0.03,-0.01,0,0.44,-0.01,0.29,,,,,,,,,,,,,,,,,,,,,,,,,0,157,157,168,1,,,,
,,,,e,0.08482,,,,,,thollard,2021-03-26_18h35.02.287,InstructionMarkovVideoG,2020.2.6,MacIntel,60,,,,,,,,,,198,0.41,0.71,,,,1,i,0.04724,1,,,,,,-0.02,-0.01,-0.05,0.26,0,0.26,,,,,,,,,,,,,,,,,,,,,,,,,0,158,158,197,1,,,,
,,,,i,0.02338,,,,,,thollard,2021-03-26_18h35.02.287,InstructionMarkovVideoG,2020.2.6,MacIntel,60,,,,,,,,,,77,0.7,0.53,,,,1,i,0.04702,0,,,,,,0.03,-0.03,0,0.45,0.02,0.54,,,,,,,,,,,,,,,,,,,,,,,,,0,159,159,76,1,,,,
,,,,i,0.08427,,,,,,thollard,2021-03-26_18h35.02.287,InstructionMarkovVideoG,2020.2.6,MacIntel,60,,,,,,,,,,49,0.65,0.63,,,,1,i,0.070735,1,,,,,,-0.07,0.01,-0.04,0.55,-0.02,0.66,,,,,,,,,,,,,,,,,,,,,,,,,0,160,160,48,1,,,,
,,,,e,0.00101,,,,,,thollard,2021-03-26_18h35.02.287,InstructionMarkovVideoG,2020.2.6,MacIntel,60,,,,,,,,,,3,0.6,0.51,,,,1,e,0.18587,1,,,,,,0.05,0.03,0.01,0.53,0.01,0.53,,,,,,,,,,,,,,,,,,,,,,,,,0,161,161,2,1,,,,
,,,,e,0.109555,,,,,,thollard,2021-03-26_18h35.02.287,InstructionMarkovVideoG,2020.2.6,MacIntel,60,,,,,,,,,,122,0.69,0.69,,,,1,i,0.106875,1,,,,,,-0.02,0,0.01,0.4,0.03,0.31,,,,,,,,,,,,,,,,,,,,,,,,,0,162,162,121,1,,,,
,,,,i,0.01925,,,,,,thollard,2021-03-26_18h35.02.287,InstructionMarkovVideoG,2020.2.6,MacIntel,60,,,,,,,,,,146,0.61,0.75,,,,1,e,0.147535,0,,,,,,-0.04,0.01,0,0.6,0.03,0.3,,,,,,,,,,,,,,,,,,,,,,,,,0,163,163,145,1,,,,
,,,,i,0.084515,,,,,,thollard,2021-03-26_18h35.02.287,InstructionMarkovVideoG,2020.2.6,MacIntel,60,,,,,,,,,,156,0.57,0.72,,,,1,i,0.105845,1,,,,,,-0.03,0.02,0.02,0.5,-0.02,0.28,,,,,,,,,,,,,,,,,,,,,,,,,0,164,164,155,1,,,,
,,,,e,0.105085,,,,,,thollard,2021-03-26_18h35.02.287,InstructionMarkovVideoG,2020.2.6,MacIntel,60,,,,,,,,,,54,0.6,0.64,,,,0,e,0.08303,0,,,,,,-0.02,0.02,-0.04,0.54,-0.02,0.6,,,,,,,,,,,,,,,,,,,,,,,,,0,165,165,53,1,,,,
,,,,e,0.06032,,,,,,thollard,2021-03-26_18h35.02.287,InstructionMarkovVideoG,2020.2.6,MacIntel,60,,,,,,,,,,195,0.41,0.73,,,,1,e,0.014455,0,,,,,,0.02,0.02,-0.01,0.26,-0.01,0.26,,,,,,,,,,,,,,,,,,,,,,,,,0,166,166,194,1,,,,
,,,,e,0.06764,,,,,,thollard,2021-03-26_18h35.02.287,InstructionMarkovVideoG,2020.2.6,MacIntel,60,,,,,,,,,,111,0.66,0.66,,,,1,e,0.03141,0,,,,,,-0.02,0.01,0,0.35,-0.01,0.41,,,,,,,,,,,,,,,,,,,,,,,,,0,167,167,110,1,,,,
,,,,i,0.10446,,,,,,thollard,2021-03-26_18h35.02.287,InstructionMarkovVideoG,2020.2.6,MacIntel,60,,,,,,,,,,173,0.51,0.73,,,,1,e,0.1289,1,,,,,,-0.01,0.02,-0.02,0.43,0.02,0.31,,,,,,,,,,,,,,,,,,,,,,,,,0,168,168,172,1,,,,
,,,,i,0.3375,,,,,,thollard,2021-03-26_18h35.02.287,InstructionMarkovVideoG,2020.2.6,MacIntel,60,,,,,,,,,,94,0.62,0.52,,,,1,i,0.121145,1,,,,,,-0.01,0,-0.02,0.26,-0.03,0.54,,,,,,,,,,,,,,,,,,,,,,,,,0,169,169,93,1,,,,
,,,,i,0.006395,,,,,,thollard,2021-03-26_18h35.02.287,InstructionMarkovVideoG,2020.2.6,MacIntel,60,,,,,,,,,,32,0.71,0.6,,,,0,i,0.05273,1,,,,,,-0.02,-0.02,0.01,0.62,0.01,0.7,,,,,,,,,,,,,,,,,,,,,,,,,0,170,170,31,1,,,,
,,,,i,0.001965,,,,,,thollard,2021-03-26_18h35.02.287,InstructionMarkovVideoG,2020.2.6,MacIntel,60,,,,,,,,,,25,0.75,0.61,,,,1,i,0.056695,1,,,,,,0.04,-0.02,0.02,0.57,0,0.71,,,,,,,,,,,,,,,,,,,,,,,,,0,171,171,24,1,,,,
,,,,i,0.13306,,,,,,thollard,2021-03-26_18h35.02.287,InstructionMarkovVideoG,2020.2.6,MacIntel,60,,,,,,,,,,97,0.66,0.56,,,,0,i,0.05298,0,,,,,,0.03,0.04,-0.04,0.31,0.01,0.56,,,,,,,,,,,,,,,,,,,,,,,,,0,172,172,96,1,,,,
,,,,i,0.07526,,,,,,thollard,2021-03-26_18h35.02.287,InstructionMarkovVideoG,2020.2.6,MacIntel,60,,,,,,,,,,160,0.62,0.72,,,,1,i,0.042455,1,,,,,,-0.01,-0.02,0.03,0.55,-0.03,0.32,,,,,,,,,,,,,,,,,,,,,,,,,0,173,173,159,1,,,,
,,,,i,0.08894,,,,,,thollard,2021-03-26_18h35.02.287,InstructionMarkovVideoG,2020.2.6,MacIntel,60,,,,,,,,,,105,0.65,0.71,,,,1,i,0.06587,1,,,,,,0,0.01,0.07,0.42,-0.03,0.4,,,,,,,,,,,,,,,,,,,,,,,,,0,174,174,104,1,,,,
,,,,i,0.051315,,,,,,thollard,2021-03-26_18h35.02.287,InstructionMarkovVideoG,2020.2.6,MacIntel,60,,,,,,,,,,21,0.64,0.56,,,,1,i,0.081565,1,,,,,,0.06,0,-0.01,0.54,0.04,0.69,,,,,,,,,,,,,,,,,,,,,,,,,0,175,175,20,1,,,,
,,,,i,0.008165,,,,,,thollard,2021-03-26_18h35.02.287,InstructionMarkovVideoG,2020.2.6,MacIntel,60,,,,,,,,,,86,0.73,0.49,,,,1,i,0.08198,0,,,,,,-0.01,0,0.01,0.35,0,0.46,,,,,,,,,,,,,,,,,,,,,,,,,0,176,176,85,1,,,,
,,,,i,0.21706,,,,,,thollard,2021-03-26_18h35.02.287,InstructionMarkovVideoG,2020.2.6,MacIntel,60,,,,,,,,,,9,0.67,0.59,,,,0,i,0.08148,1,,,,,,0.02,0.03,-0.02,0.6,0.02,0.66,,,,,,,,,,,,,,,,,,,,,,,,,0,177,177,8,1,,,,
,,,,i,0.021185,,,,,,thollard,2021-03-26_18h35.02.287,InstructionMarkovVideoG,2020.2.6,MacIntel,60,,,,,,,,,,185,0.45,0.7,,,,1,i,0.091435,0,,,,,,0,0,-0.02,0.32,0.01,0.26,,,,,,,,,,,,,,,,,,,,,,,,,0,178,178,184,1,,,,
,,,,i,0.10013,,,,,,thollard,2021-03-26_18h35.02.287,InstructionMarkovVideoG,2020.2.6,MacIntel,60,,,,,,,,,,106,0.65,0.73,,,,1,i,0.071105,0,,,,,,0,0.02,-0.03,0.39,0.03,0.43,,,,,,,,,,,,,,,,,,,,,,,,,0,179,179,105,1,,,,
,,,,e,0.025825,,,,,,thollard,2021-03-26_18h35.02.287,InstructionMarkovVideoG,2020.2.6,MacIntel,60,,,,,,,,,,131,0.72,0.73,,,,1,e,0.183225,0,,,,,,0.05,0.03,0,0.39,0,0.27,,,,,,,,,,,,,,,,,,,,,,,,,0,180,180,130,1,,,,
,,,,e,0.18482,,,,,,thollard,2021-03-26_18h35.02.287,InstructionMarkovVideoG,2020.2.6,MacIntel,60,,,,,,,,,,90,0.65,0.56,,,,1,e,0.147455,0,,,,,,-0.04,0,0,0.35,0.04,0.49,,,,,,,,,,,,,,,,,,,,,,,,,0,181,181,89,1,,,,
,,,,e,0.33502,,,,,,thollard,2021-03-26_18h35.02.287,InstructionMarkovVideoG,2020.2.6,MacIntel,60,,,,,,,,,,37,0.68,0.62,,,,1,i,0.182785,0,,,,,,0,0.04,-0.03,0.57,0.01,0.74,,,,,,,,,,,,,,,,,,,,,,,,,0,182,182,36,1,,,,
,,,,i,0.20315,,,,,,thollard,2021-03-26_18h35.02.287,InstructionMarkovVideoG,2020.2.6,MacIntel,60,,,,,,,,,,139,0.73,0.74,,,,1,e,0.164345,0,,,,,,0.01,0.05,0.02,0.49,0.01,0.29,,,,,,,,,,,,,,,,,,,,,,,,,0,183,183,138,1,,,,
,,,,i,0.25513,,,,,,thollard,2021-03-26_18h35.02.287,InstructionMarkovVideoG,2020.2.6,MacIntel,60,,,,,,,,,,199,0.4,0.73,,,,1,e,0.135315,1,,,,,,-0.01,0.02,0.02,0.28,-0.01,0.25,,,,,,,,,,,,,,,,,,,,,,,,,0,184,184,198,1,,,,
,,,,i,0.070215,,,,,,thollard,2021-03-26_18h35.02.287,InstructionMarkovVideoG,2020.2.6,MacIntel,60,,,,,,,,,,191,0.36,0.74,,,,1,e,0.17605,0,,,,,,-0.02,0.05,-0.03,0.27,-0.01,0.27,,,,,,,,,,,,,,,,,,,,,,,,,0,185,185,190,1,,,,
,,,,i,0.21658,,,,,,thollard,2021-03-26_18h35.02.287,InstructionMarkovVideoG,2020.2.6,MacIntel,60,,,,,,,,,,183,0.45,0.7,,,,1,i,0.15769,0,,,,,,0.05,0,-0.01,0.36,0,0.28,,,,,,,,,,,,,,,,,,,,,,,,,0,186,186,182,1,,,,
,,,,i,0.22163,,,,,,thollard,2021-03-26_18h35.02.287,InstructionMarkovVideoG,2020.2.6,MacIntel,60,,,,,,,,,,88,0.72,0.55,,,,0,e,0.18849,1,,,,,,0.02,0.02,-0.02,0.33,0,0.48,,,,,,,,,,,,,,,,,,,,,,,,,0,187,187,87,1,,,,
,,,,i,0.26351,,,,,,thollard,2021-03-26_18h35.02.287,InstructionMarkovVideoG,2020.2.6,MacIntel,60,,,,,,,,,,26,0.73,0.63,,,,1,e,0.24953,1,,,,,,-0.02,0.02,0.04,0.61,0,0.71,,,,,,,,,,,,,,,,,,,,,,,,,0,188,188,25,1,,,,
,,,,i,0.324115,,,,,,thollard,2021-03-26_18h35.02.287,InstructionMarkovVideoG,2020.2.6,MacIntel,60,,,,,,,,,,6,0.57,0.55,,,,0,e,0.1471,0,,,,,,-0.01,0,0.01,0.56,0,0.59,,,,,,,,,,,,,,,,,,,,,,,,,0,189,189,5,1,,,,
,,,,e,0.287485,,,,,,thollard,2021-03-26_18h35.02.287,InstructionMarkovVideoG,2020.2.6,MacIntel,60,,,,,,,,,,104,0.65,0.7,,,,0,i,0.215725,1,,,,,,-0.01,0.04,-0.02,0.35,-0.05,0.43,,,,,,,,,,,,,,,,,,,,,,,,,0,190,190,103,1,,,,
,,,,e,0.239355,,,,,,thollard,2021-03-26_18h35.02.287,InstructionMarkovVideoG,2020.2.6,MacIntel,60,,,,,,,,,,187,0.42,0.69,,,,1,i,0.214195,1,,,,,,-0.05,-0.01,0.04,0.31,-0.04,0.25,,,,,,,,,,,,,,,,,,,,,,,,,0,191,191,186,1,,,,
,,,,e,0.1192,,,,,,thollard,2021-03-26_18h35.02.287,InstructionMarkovVideoG,2020.2.6,MacIntel,60,,,,,,,,,,33,0.69,0.61,,,,0,i,0.06831,1,,,,,,-0.02,0.01,0,0.62,0.03,0.73,,,,,,,,,,,,,,,,,,,,,,,,,0,192,192,32,1,,,,
,,,,e,0.173035,,,,,,thollard,2021-03-26_18h35.02.287,InstructionMarkovVideoG,2020.2.6,MacIntel,60,,,,,,,,,,194,0.39,0.71,,,,1,i,0.080945,0,,,,,,0.04,-0.03,0,0.27,-0.02,0.25,,,,,,,,,,,,,,,,,,,,,,,,,0,193,193,193,1,,,,
,,,,i,0.183005,,,,,,thollard,2021-03-26_18h35.02.287,InstructionMarkovVideoG,2020.2.6,MacIntel,60,,,,,,,,,,93,0.63,0.52,,,,1,e,0.21661,0,,,,,,-0.02,-0.02,-0.01,0.28,0.01,0.57,,,,,,,,,,,,,,,,,,,,,,,,,0,194,194,92,1,,,,
,,,,i,0.321065,,,,,,thollard,2021-03-26_18h35.02.287,InstructionMarkovVideoG,2020.2.6,MacIntel,60,,,,,,,,,,23,0.71,0.61,,,,1,i,0.16656,1,,,,,,0.04,0.04,0.01,0.56,0.01,0.69,,,,,,,,,,,,,,,,,,,,,,,,,0,195,195,22,1,,,,
,,,,i,0.14073,,,,,,thollard,2021-03-26_18h35.02.287,InstructionMarkovVideoG,2020.2.6,MacIntel,60,,,,,,,,,,41,0.7,0.64,,,,1,i,0.185815,1,,,,,,0,0.04,0,0.61,-0.03,0.7,,,,,,,,,,,,,,,,,,,,,,,,,0,196,196,40,1,,,,
,,,,i,0.086935,,,,,,thollard,2021-03-26_18h35.02.287,InstructionMarkovVideoG,2020.2.6,MacIntel,60,,,,,,,,,,134,0.71,0.72,,,,1,i,0.18495,0,,,,,,-0.03,0.02,0.07,0.46,-0.01,0.3,,,,,,,,,,,,,,,,,,,,,,,,,0,197,197,133,1,,,,
,,,,i,0.06486,,,,,,thollard,2021-03-26_18h35.02.287,InstructionMarkovVideoG,2020.2.6,MacIntel,60,,,,,,,,,,176,0.47,0.68,,,,1,e,0.03712,1,,,,,,0.01,-0.03,0.02,0.4,0,0.31,,,,,,,,,,,,,,,,,,,,,,,,,0,198,198,175,1,,,,
,,,,i,0.02044,,,,,,thollard,2021-03-26_18h35.02.287,InstructionMarkovVideoG,2020.2.6,MacIntel,60,,,,,,,,,,62,0.58,0.59,,,,1,e,0.098675,0,,,,,,0,0.02,-0.02,0.51,-0.02,0.49,,,,,,,,,,,,,,,,,,,,,,,,,0,199,199,61,1,,,,
,,,,,,,,,,,thollard,2021-03-26_18h35.02.287,InstructionMarkovVideoG,2020.2.6,MacIntel,60,,,,,,,,,,,,,,,,,,,,,,,,,,,,,,,,,,,,,,1,0,2.12563,9,0,8.27316,2,0,0.755355,,,,,,,,,,,,,,space,6.733445,space,17.162905
