InstrVideoKR.keys,InstrVideoKR.rt,CravingKR.keys,CravingKR.corr,CravingKR.rt,ResistKR.keys,ResistKR.corr,ResistKR.rt,StressKR.keys,StressKR.corr,StressKR.rt,VideoNLoop.thisRepN,VideoNLoop.thisTrialN,VideoNLoop.thisN,VideoNLoop.thisIndex,VideoNLoop.ran,Video,email,date,expName,psychopyVersion,OS,frameRate,DebutTache2KR.keys,DebutTache2KR.rt,Choice1.keys,Choice1.rt,Transition,Choice2.keys,Choice2.rt,Reward,Task2.thisRepN,Task2.thisTrialN,Task2.thisN,Task2.thisIndex,Task2.ran,Ntrial,Walk21,PChoice21,Walk22,PChoice22,Walk23,PChoice23,Walk24,PChoice24
space,7.21663,1,0,2.460055,1,0,0.339,1,0,0.2426,0,0,0,1,1,WashOff2.mp4,test 3 ,2021-02-19_14h23.11.336,MarkovTaskNeutreJ2,2020.2.6,Win32,60,,,,,,,,,,,,,,,,,,,,,,
,,,,,,,,,,,0,1,1,8,1,WashOff9.mp4,test 3 ,2021-02-19_14h23.11.336,MarkovTaskNeutreJ2,2020.2.6,Win32,60,,,,,,,,,,,,,,,,,,,,,,
,,,,,,,,,,,0,2,2,0,1,WashOff1.mp4,test 3 ,2021-02-19_14h23.11.336,MarkovTaskNeutreJ2,2020.2.6,Win32,60,,,,,,,,,,,,,,,,,,,,,,
,,,,,,,,,,,0,3,3,7,1,WashOff8.mp4,test 3 ,2021-02-19_14h23.11.336,MarkovTaskNeutreJ2,2020.2.6,Win32,60,,,,,,,,,,,,,,,,,,,,,,
,,,,,,,,,,,0,4,4,5,1,WashOff6.mp4,test 3 ,2021-02-19_14h23.11.336,MarkovTaskNeutreJ2,2020.2.6,Win32,60,,,,,,,,,,,,,,,,,,,,,,
,,,,,,,,,,,0,5,5,6,1,WashOff7.mp4,test 3 ,2021-02-19_14h23.11.336,MarkovTaskNeutreJ2,2020.2.6,Win32,60,,,,,,,,,,,,,,,,,,,,,,
,,,,,,,,,,,0,6,6,2,1,WashOff3.mp4,test 3 ,2021-02-19_14h23.11.336,MarkovTaskNeutreJ2,2020.2.6,Win32,60,,,,,,,,,,,,,,,,,,,,,,
,,,,,,,,,,,0,7,7,3,1,WashOff4.mp4,test 3 ,2021-02-19_14h23.11.336,MarkovTaskNeutreJ2,2020.2.6,Win32,60,,,,,,,,,,,,,,,,,,,,,,
,,,,,,,,,,,0,8,8,4,1,WashOff5.mp4,test 3 ,2021-02-19_14h23.11.336,MarkovTaskNeutreJ2,2020.2.6,Win32,60,,,,,,,,,,,,,,,,,,,,,,
,,,,,,,,,,,0,9,9,9,1,WashOff10.mp4,test 3 ,2021-02-19_14h23.11.336,MarkovTaskNeutreJ2,2020.2.6,Win32,60,,,,,,,,,,,,,,,,,,,,,,
,,1,0,16.168255,1,0,0.13539,1,0,0.101395,,,,,,,test 3 ,2021-02-19_14h23.11.336,MarkovTaskNeutreJ2,2020.2.6,Win32,60,space,347.85449,i,0.86867,0,i,0.25999,0,0,0,0,92,1,93,-0.02,0.63,-0.02,0.52,-0.01,0.28,0.01,0.57
,,,,,,,,,,,,,,,,,test 3 ,2021-02-19_14h23.11.336,MarkovTaskNeutreJ2,2020.2.6,Win32,60,,,i,0.01728,1,i,0.75054,0,0,1,1,71,1,72,0.05,0.74,0.01,0.53,0,0.51,-0.02,0.47
,,,,,,,,,,,,,,,,,test 3 ,2021-02-19_14h23.11.336,MarkovTaskNeutreJ2,2020.2.6,Win32,60,,,i,0.253285,1,i,0.017215,0,0,2,2,93,1,94,-0.01,0.62,0,0.52,-0.02,0.26,-0.03,0.54
,,,,,,,,,,,,,,,,,test 3 ,2021-02-19_14h23.11.336,MarkovTaskNeutreJ2,2020.2.6,Win32,60,,,i,0.156915,1,i,0.174435,1,0,3,3,163,1,164,-0.03,0.63,0,0.69,-0.03,0.48,-0.03,0.33
,,,,,,,,,,,,,,,,,test 3 ,2021-02-19_14h23.11.336,MarkovTaskNeutreJ2,2020.2.6,Win32,60,,,i,0.20901,1,i,0.18701,1,0,4,4,184,1,185,0,0.45,0,0.7,-0.02,0.32,0.01,0.26
,,,,,,,,,,,,,,,,,test 3 ,2021-02-19_14h23.11.336,MarkovTaskNeutreJ2,2020.2.6,Win32,60,,,i,0.03407,0,i,0.200885,0,0,5,5,97,1,98,0.03,0.69,-0.04,0.52,0,0.31,-0.04,0.52
,,,,,,,,,,,,,,,,,test 3 ,2021-02-19_14h23.11.336,MarkovTaskNeutreJ2,2020.2.6,Win32,60,,,i,0.184245,0,i,0.25034,0,0,6,6,46,1,47,0.02,0.72,0.01,0.63,-0.02,0.59,-0.04,0.64
,,,,,,,,,,,,,,,,,test 3 ,2021-02-19_14h23.11.336,MarkovTaskNeutreJ2,2020.2.6,Win32,60,,,i,0.21813,1,i,0.16679,1,0,7,7,28,1,29,0.01,0.71,-0.02,0.62,0,0.59,0,0.69
,,,,,,,,,,,,,,,,,test 3 ,2021-02-19_14h23.11.336,MarkovTaskNeutreJ2,2020.2.6,Win32,60,,,i,0.134545,0,i,0.2331,1,0,8,8,18,1,19,0.02,0.71,-0.05,0.58,-0.03,0.56,0.01,0.73
,,,,,,,,,,,,,,,,,test 3 ,2021-02-19_14h23.11.336,MarkovTaskNeutreJ2,2020.2.6,Win32,60,,,i,0.134125,1,i,0.467005,0,0,9,9,66,1,67,0.02,0.59,-0.03,0.54,0.01,0.53,-0.03,0.46
,,,,,,,,,,,,,,,,,test 3 ,2021-02-19_14h23.11.336,MarkovTaskNeutreJ2,2020.2.6,Win32,60,,,i,0.133665,1,i,0.25095,1,0,10,10,149,1,150,-0.02,0.56,0.04,0.69,-0.02,0.51,-0.01,0.26
,,,,,,,,,,,,,,,,,test 3 ,2021-02-19_14h23.11.336,MarkovTaskNeutreJ2,2020.2.6,Win32,60,,,i,0.15048,0,i,0.00116,1,0,11,11,111,1,112,-0.02,0.64,-0.03,0.63,-0.01,0.34,-0.02,0.39
,,,,,,,,,,,,,,,,,test 3 ,2021-02-19_14h23.11.336,MarkovTaskNeutreJ2,2020.2.6,Win32,60,,,i,0.167545,1,i,61.856015,1,0,12,12,196,1,197,0.04,0.43,0.02,0.72,0.05,0.31,-0.01,0.26
,,,,,,,,,,,,,,,,,test 3 ,2021-02-19_14h23.11.336,MarkovTaskNeutreJ2,2020.2.6,Win32,60,,,e,199.1848,1,e,0.10752,1,0,13,13,89,1,90,-0.04,0.65,0,0.56,0,0.35,0.04,0.49
,,,,,,,,,,,,,,,,,test 3 ,2021-02-19_14h23.11.336,MarkovTaskNeutreJ2,2020.2.6,Win32,60,,,e,0.068305,1,e,0.056535,0,0,14,14,74,1,75,0.02,0.73,0.06,0.57,0.04,0.48,0.01,0.5
,,,,,,,,,,,,,,,,,test 3 ,2021-02-19_14h23.11.336,MarkovTaskNeutreJ2,2020.2.6,Win32,60,,,e,0.0173,1,e,0.554505,0,0,15,15,197,1,198,-0.02,0.41,-0.01,0.71,-0.05,0.26,0,0.26
,,,,,,,,,,,,,,,,,test 3 ,2021-02-19_14h23.11.336,MarkovTaskNeutreJ2,2020.2.6,Win32,60,,,e,0.317385,1,e,2.231895,1,0,16,16,177,1,178,-0.03,0.46,0,0.68,0.03,0.42,-0.04,0.31
,,,,,,,,,,,,,,,,,test 3 ,2021-02-19_14h23.11.336,MarkovTaskNeutreJ2,2020.2.6,Win32,60,,,e,2.698595,1,e,0.48366,0,0,17,17,30,1,31,0.02,0.73,0,0.62,-0.03,0.61,-0.01,0.69
,,,,,,,,,,,,,,,,,test 3 ,2021-02-19_14h23.11.336,MarkovTaskNeutreJ2,2020.2.6,Win32,60,,,e,0.36781,0,e,0.384015,0,0,18,18,39,1,40,0,0.7,-0.02,0.6,0,0.61,0,0.73
,,,,,,,,,,,,,,,,,test 3 ,2021-02-19_14h23.11.336,MarkovTaskNeutreJ2,2020.2.6,Win32,60,,,e,9.560115,1,e,0.200875,1,0,19,19,29,1,30,0,0.71,0,0.62,0.05,0.64,0.01,0.7
,,,,,,,,,,,,,,,,,test 3 ,2021-02-19_14h23.11.336,MarkovTaskNeutreJ2,2020.2.6,Win32,60,,,e,0.002905,0,e,0.21796,1,0,20,20,82,1,83,0.02,0.69,-0.01,0.5,0.03,0.37,0,0.49
,,,,,,,,,,,,,,,,,test 3 ,2021-02-19_14h23.11.336,MarkovTaskNeutreJ2,2020.2.6,Win32,60,,,e,0.03369,0,e,0.01719,1,0,21,21,4,1,5,-0.01,0.58,0.01,0.55,0.02,0.55,0.02,0.59
,,,,,,,,,,,,,,,,,test 3 ,2021-02-19_14h23.11.336,MarkovTaskNeutreJ2,2020.2.6,Win32,60,,,e,0.150715,1,e,0.233695,1,0,22,22,48,1,49,-0.07,0.65,0.01,0.63,-0.04,0.55,-0.02,0.66
,,,,,,,,,,,,,,,,,test 3 ,2021-02-19_14h23.11.336,MarkovTaskNeutreJ2,2020.2.6,Win32,60,,,e,0.484345,1,e,0.443415,0,0,23,23,49,1,50,-0.02,0.63,-0.01,0.62,-0.01,0.54,0,0.66
,,,,,,,,,,,,,,,,,test 3 ,2021-02-19_14h23.11.336,MarkovTaskNeutreJ2,2020.2.6,Win32,60,,,e,1.68861,1,e,1.19906,0,0,24,24,195,1,196,-0.02,0.39,0.01,0.74,0,0.26,-0.01,0.25
,,,,,,,,,,,,,,,,,test 3 ,2021-02-19_14h23.11.336,MarkovTaskNeutreJ2,2020.2.6,Win32,60,,,e,0.52221,0,e,0.716745,1,0,25,25,104,1,105,0,0.65,0.01,0.71,0.07,0.42,-0.03,0.4
,,,,,,,,,,,,,,,,,test 3 ,2021-02-19_14h23.11.336,MarkovTaskNeutreJ2,2020.2.6,Win32,60,,,e,0.247725,0,e,0.233435,1,0,26,26,37,1,38,0.02,0.7,0,0.62,0.02,0.59,0.04,0.7
,,,,,,,,,,,,,,,,,test 3 ,2021-02-19_14h23.11.336,MarkovTaskNeutreJ2,2020.2.6,Win32,60,,,e,0.16737,1,e,0.61665,0,0,27,27,24,1,25,0.04,0.75,-0.02,0.61,0.02,0.57,0,0.71
,,,,,,,,,,,,,,,,,test 3 ,2021-02-19_14h23.11.336,MarkovTaskNeutreJ2,2020.2.6,Win32,60,,,e,0.401245,1,e,0.29992,1,0,28,28,159,1,160,-0.01,0.62,-0.02,0.72,0.03,0.55,-0.03,0.32
,,,,,,,,,,,,,,,,,test 3 ,2021-02-19_14h23.11.336,MarkovTaskNeutreJ2,2020.2.6,Win32,60,,,e,0.18417,0,e,0.234355,1,0,29,29,136,1,137,0.02,0.74,0.03,0.73,-0.01,0.46,0.02,0.28
,,,,,,,,,,,,,,,,,test 3 ,2021-02-19_14h23.11.336,MarkovTaskNeutreJ2,2020.2.6,Win32,60,,,e,0.16753,0,e,0.500975,0,0,30,30,83,1,84,0,0.69,0,0.5,-0.04,0.33,-0.02,0.47
,,,,,,,,,,,,,,,,,test 3 ,2021-02-19_14h23.11.336,MarkovTaskNeutreJ2,2020.2.6,Win32,60,,,e,0.233955,1,e,0.626975,0,0,31,31,125,1,126,0,0.66,-0.01,0.72,0.01,0.39,-0.02,0.35
,,,,,,,,,,,,,,,,,test 3 ,2021-02-19_14h23.11.336,MarkovTaskNeutreJ2,2020.2.6,Win32,60,,,e,0.307395,1,e,0.01694,1,0,32,32,47,1,48,0,0.72,-0.01,0.62,0,0.59,0.04,0.68
,,,,,,,,,,,,,,,,,test 3 ,2021-02-19_14h23.11.336,MarkovTaskNeutreJ2,2020.2.6,Win32,60,,,e,0.034885,1,e,0.10058,1,0,33,33,81,1,82,-0.06,0.67,0,0.51,-0.02,0.34,-0.03,0.49
,,,,,,,,,,,,,,,,,test 3 ,2021-02-19_14h23.11.336,MarkovTaskNeutreJ2,2020.2.6,Win32,60,,,e,0.155315,1,e,0.017945,0,0,34,34,101,1,102,-0.01,0.68,0.04,0.61,-0.01,0.37,0.02,0.46
,,,,,,,,,,,,,,,,,test 3 ,2021-02-19_14h23.11.336,MarkovTaskNeutreJ2,2020.2.6,Win32,60,,,e,0.08403,0,e,0.03415,0,0,35,35,121,1,122,-0.02,0.69,0,0.69,0.01,0.4,0.03,0.31
,,,,,,,,,,,,,,,,,test 3 ,2021-02-19_14h23.11.336,MarkovTaskNeutreJ2,2020.2.6,Win32,60,,,e,0.184235,1,e,0.06814,1,0,36,36,95,1,96,0.03,0.63,-0.02,0.52,-0.01,0.27,0.05,0.55
,,,,,,,,,,,,,,,,,test 3 ,2021-02-19_14h23.11.336,MarkovTaskNeutreJ2,2020.2.6,Win32,60,,,e,0.050715,0,e,0.066135,0,0,37,37,146,1,147,-0.05,0.56,-0.03,0.72,-0.02,0.58,0,0.3
,,,,,,,,,,,,,,,,,test 3 ,2021-02-19_14h23.11.336,MarkovTaskNeutreJ2,2020.2.6,Win32,60,,,e,0.20033,1,e,0.01684,1,0,38,38,59,1,60,0.01,0.61,0,0.55,-0.03,0.51,0,0.49
,,,,,,,,,,,,,,,,,test 3 ,2021-02-19_14h23.11.336,MarkovTaskNeutreJ2,2020.2.6,Win32,60,,,e,0.08468,0,e,0.03526,1,0,39,39,126,1,127,0.01,0.67,0,0.72,0.02,0.41,-0.01,0.34
,,,,,,,,,,,,,,,,,test 3 ,2021-02-19_14h23.11.336,MarkovTaskNeutreJ2,2020.2.6,Win32,60,,,e,0.18346,0,e,0.00109,0,0,40,40,110,1,111,-0.02,0.66,0.01,0.66,0,0.35,-0.01,0.41
,,,,,,,,,,,,,,,,,test 3 ,2021-02-19_14h23.11.336,MarkovTaskNeutreJ2,2020.2.6,Win32,60,,,e,0.034625,1,e,0.06782,1,0,41,41,180,1,181,-0.01,0.4,0.04,0.69,-0.02,0.4,0,0.27
,,,,,,,,,,,,,,,,,test 3 ,2021-02-19_14h23.11.336,MarkovTaskNeutreJ2,2020.2.6,Win32,60,,,e,0.01732,1,e,0.03341,1,0,42,42,188,1,189,-0.02,0.41,0.02,0.67,-0.02,0.29,-0.02,0.28
,,,,,,,,,,,,,,,,,test 3 ,2021-02-19_14h23.11.336,MarkovTaskNeutreJ2,2020.2.6,Win32,60,,,e,0.0844,1,e,0.13256,1,0,43,43,138,1,139,0.01,0.73,0.05,0.74,0.02,0.49,0.01,0.29
,,,,,,,,,,,,,,,,,test 3 ,2021-02-19_14h23.11.336,MarkovTaskNeutreJ2,2020.2.6,Win32,60,,,e,0.167355,1,e,0.05146,1,0,44,44,169,1,170,-0.05,0.55,0.04,0.67,0,0.44,-0.01,0.28
,,,,,,,,,,,,,,,,,test 3 ,2021-02-19_14h23.11.336,MarkovTaskNeutreJ2,2020.2.6,Win32,60,,,e,0.08494,1,e,0.083655,0,0,45,45,194,1,195,0.02,0.41,0.02,0.73,-0.01,0.26,-0.01,0.26
,,,,,,,,,,,,,,,,,test 3 ,2021-02-19_14h23.11.336,MarkovTaskNeutreJ2,2020.2.6,Win32,60,,,e,0.08477,0,e,0.050525,1,0,46,46,21,1,22,0.03,0.67,0.01,0.57,0.01,0.55,-0.01,0.68
,,,,,,,,,,,,,,,,,test 3 ,2021-02-19_14h23.11.336,MarkovTaskNeutreJ2,2020.2.6,Win32,60,,,e,0.350905,1,e,0.10062,1,0,47,47,119,1,120,0,0.69,0.03,0.71,0,0.43,0,0.27
,,,,,,,,,,,,,,,,,test 3 ,2021-02-19_14h23.11.336,MarkovTaskNeutreJ2,2020.2.6,Win32,60,,,e,0.13437,1,e,0.084015,0,0,48,48,25,1,26,-0.02,0.73,0.02,0.63,0.04,0.61,0,0.71
,,,,,,,,,,,,,,,,,test 3 ,2021-02-19_14h23.11.336,MarkovTaskNeutreJ2,2020.2.6,Win32,60,,,e,0.017425,1,e,0.08492,0,0,49,49,131,1,132,0.01,0.73,-0.01,0.72,0,0.39,0.02,0.29
,,,,,,,,,,,,,,,,,test 3 ,2021-02-19_14h23.11.336,MarkovTaskNeutreJ2,2020.2.6,Win32,60,,,e,0.117695,1,e,0.082905,0,0,50,50,143,1,144,-0.02,0.66,0.03,0.74,0,0.61,0.01,0.27
,,,,,,,,,,,,,,,,,test 3 ,2021-02-19_14h23.11.336,MarkovTaskNeutreJ2,2020.2.6,Win32,60,,,e,0.007135,1,e,0.00113,1,0,51,51,105,1,106,0,0.65,0.02,0.73,-0.03,0.39,0.03,0.43
,,,,,,,,,,,,,,,,,test 3 ,2021-02-19_14h23.11.336,MarkovTaskNeutreJ2,2020.2.6,Win32,60,,,e,0.0348,0,e,0.040235,1,0,52,52,167,1,168,-0.02,0.57,-0.04,0.64,-0.03,0.44,0,0.3
,,,,,,,,,,,,,,,,,test 3 ,2021-02-19_14h23.11.336,MarkovTaskNeutreJ2,2020.2.6,Win32,60,,,e,0.072425,1,e,0.006845,1,0,53,53,140,1,141,0,0.7,-0.02,0.7,0.02,0.52,-0.01,0.26
,,,,,,,,,,,,,,,,,test 3 ,2021-02-19_14h23.11.336,MarkovTaskNeutreJ2,2020.2.6,Win32,60,,,e,0.158865,1,e,0.034165,0,0,54,54,145,1,146,-0.04,0.61,0.01,0.75,0,0.6,0.03,0.3
,,,,,,,,,,,,,,,,,test 3 ,2021-02-19_14h23.11.336,MarkovTaskNeutreJ2,2020.2.6,Win32,60,,,e,0.133925,0,e,0.0511,1,0,55,55,6,1,7,0.04,0.61,0,0.55,0,0.56,0.06,0.65
,,,,,,,,,,,,,,,,,test 3 ,2021-02-19_14h23.11.336,MarkovTaskNeutreJ2,2020.2.6,Win32,60,,,e,0.00098,1,e,0.05136,0,0,56,56,72,1,73,0,0.74,0.01,0.54,-0.03,0.48,0.04,0.51
,,,,,,,,,,,,,,,,,test 3 ,2021-02-19_14h23.11.336,MarkovTaskNeutreJ2,2020.2.6,Win32,60,,,e,0.118085,1,e,0.0011,0,0,57,57,56,1,57,-0.01,0.61,-0.02,0.59,0.02,0.6,0.01,0.56
,,,,,,,,,,,,,,,,,test 3 ,2021-02-19_14h23.11.336,MarkovTaskNeutreJ2,2020.2.6,Win32,60,,,e,0.069415,1,e,0.051055,0,0,58,58,3,1,4,-0.01,0.59,0.03,0.54,0,0.53,0.04,0.57
,,,,,,,,,,,,,,,,,test 3 ,2021-02-19_14h23.11.336,MarkovTaskNeutreJ2,2020.2.6,Win32,60,,,e,0.20062,1,e,0.13515,1,0,59,59,86,1,87,-0.03,0.7,0.04,0.53,0,0.35,0.02,0.48
,,,,,,,,,,,,,,,,,test 3 ,2021-02-19_14h23.11.336,MarkovTaskNeutreJ2,2020.2.6,Win32,60,,,e,0.183925,1,e,0.217805,1,0,60,60,5,1,6,-0.01,0.57,0,0.55,0.01,0.56,0,0.59
,,,,,,,,,,,,,,,,,test 3 ,2021-02-19_14h23.11.336,MarkovTaskNeutreJ2,2020.2.6,Win32,60,,,e,0.10103,1,e,0.1495,1,0,61,61,181,1,182,0,0.4,0.01,0.7,-0.03,0.37,0.01,0.28
,,,,,,,,,,,,,,,,,test 3 ,2021-02-19_14h23.11.336,MarkovTaskNeutreJ2,2020.2.6,Win32,60,,,e,0.26752,1,e,0.001155,1,0,62,62,84,1,85,0.05,0.74,-0.01,0.49,0.01,0.34,-0.01,0.46
,,,,,,,,,,,,,,,,,test 3 ,2021-02-19_14h23.11.336,MarkovTaskNeutreJ2,2020.2.6,Win32,60,,,e,0.16794,1,e,0.249755,1,0,63,63,199,1,200,-0.04,0.36,-0.01,0.72,0.02,0.3,-0.05,0.3
,,,,,,,,,,,,,,,,,test 3 ,2021-02-19_14h23.11.336,MarkovTaskNeutreJ2,2020.2.6,Win32,60,,,e,0.018335,1,e,0.100665,1,0,64,64,182,1,183,0.05,0.45,0,0.7,-0.01,0.36,0,0.28
,,,,,,,,,,,,,,,,,test 3 ,2021-02-19_14h23.11.336,MarkovTaskNeutreJ2,2020.2.6,Win32,60,,,e,0.100445,1,e,0.0665,1,0,65,65,115,1,116,-0.01,0.67,0.02,0.65,0.02,0.38,-0.02,0.35
,,,,,,,,,,,,,,,,,test 3 ,2021-02-19_14h23.11.336,MarkovTaskNeutreJ2,2020.2.6,Win32,60,,,e,0.18364,1,e,0.01542,0,0,66,66,33,1,34,0.01,0.7,-0.01,0.6,0,0.62,0.01,0.74
,,,,,,,,,,,,,,,,,test 3 ,2021-02-19_14h23.11.336,MarkovTaskNeutreJ2,2020.2.6,Win32,60,,,e,0.116385,1,e,0.084375,1,0,67,67,153,1,154,-0.03,0.59,-0.02,0.68,-0.04,0.48,-0.01,0.26
,,,,,,,,,,,,,,,,,test 3 ,2021-02-19_14h23.11.336,MarkovTaskNeutreJ2,2020.2.6,Win32,60,,,e,0.11742,1,e,0.149785,1,0,68,68,130,1,131,0.05,0.72,0.03,0.73,0,0.39,0,0.27
,,,,,,,,,,,,,,,,,test 3 ,2021-02-19_14h23.11.336,MarkovTaskNeutreJ2,2020.2.6,Win32,60,,,e,0.047435,1,e,0.058215,0,0,69,69,16,1,17,0.02,0.68,-0.03,0.6,0,0.58,0.03,0.75
,,,,,,,,,,,,,,,,,test 3 ,2021-02-19_14h23.11.336,MarkovTaskNeutreJ2,2020.2.6,Win32,60,,,e,0.019485,0,e,0.04115,0,0,70,70,172,1,173,-0.01,0.51,0.02,0.73,-0.02,0.43,0.02,0.31
,,,,,,,,,,,,,,,,,test 3 ,2021-02-19_14h23.11.336,MarkovTaskNeutreJ2,2020.2.6,Win32,60,,,e,0.0377,1,e,0.041125,1,0,71,71,137,1,138,0.02,0.72,-0.04,0.69,0.01,0.47,0,0.28
,,,,,,,,,,,,,,,,,test 3 ,2021-02-19_14h23.11.336,MarkovTaskNeutreJ2,2020.2.6,Win32,60,,,e,0.01739,0,e,0.059625,0,0,72,72,54,1,55,0.02,0.62,-0.03,0.61,0.03,0.57,-0.02,0.58
,,,,,,,,,,,,,,,,,test 3 ,2021-02-19_14h23.11.336,MarkovTaskNeutreJ2,2020.2.6,Win32,60,,,e,0.151325,1,e,0.051485,0,0,73,73,133,1,134,-0.03,0.71,0.02,0.72,0.07,0.46,-0.01,0.3
,,,,,,,,,,,,,,,,,test 3 ,2021-02-19_14h23.11.336,MarkovTaskNeutreJ2,2020.2.6,Win32,60,,,e,0.11243,1,e,0.20061,0,0,74,74,155,1,156,-0.03,0.57,0.02,0.72,0.02,0.5,-0.02,0.28
,,,,,,,,,,,,,,,,,test 3 ,2021-02-19_14h23.11.336,MarkovTaskNeutreJ2,2020.2.6,Win32,60,,,e,0.03451,1,e,0.070355,1,0,75,75,64,1,65,0,0.55,-0.02,0.55,-0.01,0.51,0.05,0.49
,,,,,,,,,,,,,,,,,test 3 ,2021-02-19_14h23.11.336,MarkovTaskNeutreJ2,2020.2.6,Win32,60,,,e,0.051855,1,e,0.042475,1,0,76,76,164,1,165,0,0.63,-0.01,0.68,0,0.48,-0.06,0.27
,,,,,,,,,,,,,,,,,test 3 ,2021-02-19_14h23.11.336,MarkovTaskNeutreJ2,2020.2.6,Win32,60,,,e,0.167975,1,e,0.13896,0,0,77,77,79,1,80,0.01,0.73,0.01,0.53,-0.01,0.41,-0.02,0.53
,,,,,,,,,,,,,,,,,test 3 ,2021-02-19_14h23.11.336,MarkovTaskNeutreJ2,2020.2.6,Win32,60,,,e,0.106355,1,e,0.07592,0,0,78,78,175,1,176,0.01,0.47,-0.03,0.68,0.02,0.4,0,0.31
,,,,,,,,,,,,,,,,,test 3 ,2021-02-19_14h23.11.336,MarkovTaskNeutreJ2,2020.2.6,Win32,60,,,e,0.067795,1,e,0.049235,0,0,79,79,124,1,125,0.05,0.66,0.02,0.73,-0.02,0.38,0.04,0.37
,,,,,,,,,,,,,,,,,test 3 ,2021-02-19_14h23.11.336,MarkovTaskNeutreJ2,2020.2.6,Win32,60,,,e,0.13414,0,e,0.13295,1,0,80,80,7,1,8,0.04,0.65,0.01,0.56,0.06,0.62,-0.01,0.64
,,,,,,,,,,,,,,,,,test 3 ,2021-02-19_14h23.11.336,MarkovTaskNeutreJ2,2020.2.6,Win32,60,,,e,0.117095,1,e,0.150255,1,0,81,81,75,1,76,0,0.73,-0.01,0.56,-0.03,0.45,0.02,0.52
,,,,,,,,,,,,,,,,,test 3 ,2021-02-19_14h23.11.336,MarkovTaskNeutreJ2,2020.2.6,Win32,60,,,e,0.1681,1,e,0.10048,1,0,82,82,98,1,99,-0.01,0.68,-0.01,0.51,0.04,0.35,-0.03,0.49
,,,,,,,,,,,,,,,,,test 3 ,2021-02-19_14h23.11.336,MarkovTaskNeutreJ2,2020.2.6,Win32,60,,,e,0.051315,1,e,0.117385,0,0,83,83,198,1,199,-0.01,0.4,0.02,0.73,0.02,0.28,-0.01,0.25
,,,,,,,,,,,,,,,,,test 3 ,2021-02-19_14h23.11.336,MarkovTaskNeutreJ2,2020.2.6,Win32,60,,,e,0.10081,1,e,0.117485,1,0,84,84,36,1,37,0,0.68,0.04,0.62,-0.03,0.57,0.01,0.74
,,,,,,,,,,,,,,,,,test 3 ,2021-02-19_14h23.11.336,MarkovTaskNeutreJ2,2020.2.6,Win32,60,,,e,0.067625,0,e,0.0677,0,0,85,85,70,1,71,0.03,0.69,0.01,0.52,-0.01,0.51,0.03,0.49
,,,,,,,,,,,,,,,,,test 3 ,2021-02-19_14h23.11.336,MarkovTaskNeutreJ2,2020.2.6,Win32,60,,,e,0.068365,0,e,0.08315,0,0,86,86,142,1,143,-0.02,0.68,0.03,0.71,0.03,0.61,0.01,0.26
,,,,,,,,,,,,,,,,,test 3 ,2021-02-19_14h23.11.336,MarkovTaskNeutreJ2,2020.2.6,Win32,60,,,e,0.101175,1,e,0.1663,0,0,87,87,189,1,190,-0.03,0.38,0.02,0.69,0.01,0.3,0,0.28
,,,,,,,,,,,,,,,,,test 3 ,2021-02-19_14h23.11.336,MarkovTaskNeutreJ2,2020.2.6,Win32,60,,,e,0.08461,0,e,0.10125,0,0,88,88,103,1,104,-0.01,0.65,0.04,0.7,-0.02,0.35,-0.05,0.43
,,,,,,,,,,,,,,,,,test 3 ,2021-02-19_14h23.11.336,MarkovTaskNeutreJ2,2020.2.6,Win32,60,,,e,0.07012,1,e,0.592005,0,0,89,89,157,1,158,0.02,0.6,0.03,0.75,0.04,0.54,0.02,0.29
,,,,,,,,,,,,,,,,,test 3 ,2021-02-19_14h23.11.336,MarkovTaskNeutreJ2,2020.2.6,Win32,60,,,e,0.25877,1,e,0.2854,1,0,90,90,132,1,133,0.01,0.74,0.02,0.74,0,0.39,0.02,0.31
,,,,,,,,,,,,,,,,,test 3 ,2021-02-19_14h23.11.336,MarkovTaskNeutreJ2,2020.2.6,Win32,60,,,e,0.058825,1,e,0.67214,1,0,91,91,85,1,86,-0.01,0.73,0,0.49,0.01,0.35,0,0.46
,,,,,,,,,,,,,,,,,test 3 ,2021-02-19_14h23.11.336,MarkovTaskNeutreJ2,2020.2.6,Win32,60,,,e,0.051765,0,e,0.092595,0,0,92,92,91,1,92,0,0.65,-0.02,0.54,-0.03,0.29,0.03,0.56
,,,,,,,,,,,,,,,,,test 3 ,2021-02-19_14h23.11.336,MarkovTaskNeutreJ2,2020.2.6,Win32,60,,,e,0.600055,1,e,0.517505,0,0,93,93,176,1,177,0.02,0.49,0,0.68,-0.01,0.39,-0.04,0.27
,,,,,,,,,,,,,,,,,test 3 ,2021-02-19_14h23.11.336,MarkovTaskNeutreJ2,2020.2.6,Win32,60,,,e,0.117115,0,e,0.950015,0,0,94,94,34,1,35,0.03,0.73,0.01,0.61,-0.02,0.6,-0.02,0.72
,,,,,,,,,,,,,,,,,test 3 ,2021-02-19_14h23.11.336,MarkovTaskNeutreJ2,2020.2.6,Win32,60,,,e,0.21646,1,e,0.216805,1,0,95,95,112,1,113,0.01,0.65,-0.05,0.58,0.01,0.35,0.01,0.4
,,,,,,,,,,,,,,,,,test 3 ,2021-02-19_14h23.11.336,MarkovTaskNeutreJ2,2020.2.6,Win32,60,,,e,0.200455,1,e,0.01751,1,0,96,96,80,1,81,0,0.73,-0.02,0.51,-0.05,0.36,-0.01,0.52
,,,,,,,,,,,,,,,,,test 3 ,2021-02-19_14h23.11.336,MarkovTaskNeutreJ2,2020.2.6,Win32,60,,,e,0.267225,1,e,0.216855,1,0,97,97,23,1,24,0,0.71,0.02,0.63,-0.01,0.55,0.02,0.71
,,,,,,,,,,,,,,,,,test 3 ,2021-02-19_14h23.11.336,MarkovTaskNeutreJ2,2020.2.6,Win32,60,,,e,0.117815,0,e,0.234675,0,0,98,98,120,1,121,0.02,0.71,-0.02,0.69,-0.04,0.39,0.01,0.28
,,,,,,,,,,,,,,,,,test 3 ,2021-02-19_14h23.11.336,MarkovTaskNeutreJ2,2020.2.6,Win32,60,,,e,0.134615,1,e,0.11624,1,0,99,99,129,1,130,-0.01,0.67,-0.02,0.7,-0.03,0.39,-0.05,0.27
,,,,,,,,,,,,,,,,,test 3 ,2021-02-19_14h23.11.336,MarkovTaskNeutreJ2,2020.2.6,Win32,60,,,e,0.0171,1,e,0.18341,1,0,100,100,156,1,157,0.01,0.58,0,0.72,0,0.5,-0.01,0.27
,,,,,,,,,,,,,,,,,test 3 ,2021-02-19_14h23.11.336,MarkovTaskNeutreJ2,2020.2.6,Win32,60,,,e,0.017165,0,e,0.069125,1,0,101,101,77,1,78,0.04,0.74,0.01,0.54,-0.03,0.42,-0.02,0.52
,,,,,,,,,,,,,,,,,test 3 ,2021-02-19_14h23.11.336,MarkovTaskNeutreJ2,2020.2.6,Win32,60,,,e,0.167175,1,e,0.050615,1,0,102,102,68,1,69,0.01,0.62,-0.03,0.5,0.01,0.55,-0.03,0.44
,,,,,,,,,,,,,,,,,test 3 ,2021-02-19_14h23.11.336,MarkovTaskNeutreJ2,2020.2.6,Win32,60,,,e,0.084955,1,e,0.16673,0,0,103,103,73,1,74,0.01,0.75,-0.03,0.51,-0.04,0.44,-0.02,0.49
,,,,,,,,,,,,,,,,,test 3 ,2021-02-19_14h23.11.336,MarkovTaskNeutreJ2,2020.2.6,Win32,60,,,e,0.117435,1,e,0.066925,1,0,104,104,150,1,151,0.05,0.61,0.01,0.7,-0.01,0.5,-0.01,0.25
,,,,,,,,,,,,,,,,,test 3 ,2021-02-19_14h23.11.336,MarkovTaskNeutreJ2,2020.2.6,Win32,60,,,e,0.200595,1,e,0.134315,1,0,105,105,148,1,149,-0.01,0.58,0.02,0.73,-0.03,0.53,-0.06,0.25
,,,,,,,,,,,,,,,,,test 3 ,2021-02-19_14h23.11.336,MarkovTaskNeutreJ2,2020.2.6,Win32,60,,,e,0.083835,1,e,0.13354,1,0,106,106,41,1,42,0.02,0.72,0,0.64,-0.02,0.59,0.06,0.64
,,,,,,,,,,,,,,,,,test 3 ,2021-02-19_14h23.11.336,MarkovTaskNeutreJ2,2020.2.6,Win32,60,,,i,12.849095,0,i,0.177345,0,0,107,107,52,1,53,0,0.62,0,0.62,0,0.58,-0.01,0.62
,,,,,,,,,,,,,,,,,test 3 ,2021-02-19_14h23.11.336,MarkovTaskNeutreJ2,2020.2.6,Win32,60,,,i,0.191425,0,i,0.16508,1,0,108,108,183,1,184,0,0.45,0,0.7,-0.02,0.34,-0.03,0.25
,,,,,,,,,,,,,,,,,test 3 ,2021-02-19_14h23.11.336,MarkovTaskNeutreJ2,2020.2.6,Win32,60,,,i,0.91587,1,i,0.633585,1,0,109,109,17,1,18,0.01,0.69,0.03,0.63,0.01,0.59,0.03,0.72
,,,,,,,,,,,,,,,,,test 3 ,2021-02-19_14h23.11.336,MarkovTaskNeutreJ2,2020.2.6,Win32,60,,,i,0.217555,1,i,0.03267,0,0,110,110,100,1,101,0,0.69,-0.01,0.57,0.04,0.38,-0.06,0.44
,,,,,,,,,,,,,,,,,test 3 ,2021-02-19_14h23.11.336,MarkovTaskNeutreJ2,2020.2.6,Win32,60,,,i,2.391665,1,i,0.04952,0,0,111,111,57,1,58,-0.02,0.59,0,0.59,-0.03,0.57,-0.04,0.52
,,,,,,,,,,,,,,,,,test 3 ,2021-02-19_14h23.11.336,MarkovTaskNeutreJ2,2020.2.6,Win32,60,,,i,0.454195,1,i,0.071495,0,0,112,112,190,1,191,-0.02,0.36,0.05,0.74,-0.03,0.27,-0.01,0.27
,,,,,,,,,,,,,,,,,test 3 ,2021-02-19_14h23.11.336,MarkovTaskNeutreJ2,2020.2.6,Win32,60,,,i,0.03421,1,i,0.00103,1,0,113,113,27,1,28,-0.01,0.7,0.01,0.64,0.01,0.59,-0.01,0.69
,,,,,,,,,,,,,,,,,test 3 ,2021-02-19_14h23.11.336,MarkovTaskNeutreJ2,2020.2.6,Win32,60,,,i,0.33454,1,i,0.000985,1,0,114,114,128,1,129,0.02,0.68,0.01,0.72,0,0.42,0.01,0.32
,,,,,,,,,,,,,,,,,test 3 ,2021-02-19_14h23.11.336,MarkovTaskNeutreJ2,2020.2.6,Win32,60,,,i,0.333185,1,i,0.183775,0,0,115,115,193,1,194,0.04,0.39,-0.03,0.71,0,0.27,-0.02,0.25
,,,,,,,,,,,,,,,,,test 3 ,2021-02-19_14h23.11.336,MarkovTaskNeutreJ2,2020.2.6,Win32,60,,,i,0.07351,1,i,0.00112,1,0,116,116,96,1,97,0.03,0.66,0.04,0.56,-0.04,0.31,0.01,0.56
,,,,,,,,,,,,,,,,,test 3 ,2021-02-19_14h23.11.336,MarkovTaskNeutreJ2,2020.2.6,Win32,60,,,i,0.335555,1,i,0.019085,0,0,117,117,108,1,109,0.02,0.65,0,0.67,-0.01,0.35,0.02,0.43
,,,,,,,,,,,,,,,,,test 3 ,2021-02-19_14h23.11.336,MarkovTaskNeutreJ2,2020.2.6,Win32,60,,,i,0.254335,1,i,0.005285,1,0,118,118,191,1,192,0,0.36,0,0.74,-0.02,0.25,0.01,0.28
,,,,,,,,,,,,,,,,,test 3 ,2021-02-19_14h23.11.336,MarkovTaskNeutreJ2,2020.2.6,Win32,60,,,i,0.22303,1,i,0.102985,1,0,119,119,11,1,12,-0.02,0.64,0.01,0.66,0.01,0.62,0.05,0.72
,,,,,,,,,,,,,,,,,test 3 ,2021-02-19_14h23.11.336,MarkovTaskNeutreJ2,2020.2.6,Win32,60,,,i,0.27367,1,i,0.200815,1,0,120,120,55,1,56,0,0.62,0,0.61,0.01,0.58,-0.03,0.55
,,,,,,,,,,,,,,,,,test 3 ,2021-02-19_14h23.11.336,MarkovTaskNeutreJ2,2020.2.6,Win32,60,,,i,0.32217,1,i,0.023385,1,0,121,121,35,1,36,-0.05,0.68,-0.03,0.58,0,0.6,0.01,0.73
,,,,,,,,,,,,,,,,,test 3 ,2021-02-19_14h23.11.336,MarkovTaskNeutreJ2,2020.2.6,Win32,60,,,i,0.028235,0,i,0.02825,1,0,122,122,134,1,135,0.02,0.73,0,0.72,-0.03,0.43,-0.01,0.29
,,,,,,,,,,,,,,,,,test 3 ,2021-02-19_14h23.11.336,MarkovTaskNeutreJ2,2020.2.6,Win32,60,,,i,1.15385,0,i,0.871385,1,0,123,123,76,1,77,0.03,0.7,-0.03,0.53,0,0.45,0.02,0.54
,,,,,,,,,,,,,,,,,test 3 ,2021-02-19_14h23.11.336,MarkovTaskNeutreJ2,2020.2.6,Win32,60,,,i,0.27494,0,i,0.36721,0,0,124,124,144,1,145,-0.01,0.65,0,0.74,-0.01,0.6,0,0.27
,,,,,,,,,,,,,,,,,test 3 ,2021-02-19_14h23.11.336,MarkovTaskNeutreJ2,2020.2.6,Win32,60,,,i,0.533435,1,i,0.00108,0,0,125,125,170,1,171,-0.01,0.54,0.02,0.69,-0.01,0.43,-0.02,0.26
,,,,,,,,,,,,,,,,,test 3 ,2021-02-19_14h23.11.336,MarkovTaskNeutreJ2,2020.2.6,Win32,60,,,i,0.001005,0,i,0.267195,0,0,126,126,53,1,54,-0.02,0.6,0.02,0.64,-0.04,0.54,-0.02,0.6
,,,,,,,,,,,,,,,,,test 3 ,2021-02-19_14h23.11.336,MarkovTaskNeutreJ2,2020.2.6,Win32,60,,,i,0.033945,1,i,0.26689,0,0,127,127,114,1,115,0,0.68,0.03,0.63,0.02,0.36,0.02,0.37
,,,,,,,,,,,,,,,,,test 3 ,2021-02-19_14h23.11.336,MarkovTaskNeutreJ2,2020.2.6,Win32,60,,,i,0.184985,1,i,0.06738,0,0,128,128,171,1,172,-0.02,0.52,0.02,0.71,0.02,0.45,0.03,0.29
,,,,,,,,,,,,,,,,,test 3 ,2021-02-19_14h23.11.336,MarkovTaskNeutreJ2,2020.2.6,Win32,60,,,i,0.217845,0,i,0.18416,1,0,129,129,139,1,140,0.03,0.7,-0.02,0.72,0.01,0.5,-0.02,0.27
,,,,,,,,,,,,,,,,,test 3 ,2021-02-19_14h23.11.336,MarkovTaskNeutreJ2,2020.2.6,Win32,60,,,i,0.916635,1,i,0.18386,0,0,130,130,78,1,79,0.02,0.72,-0.02,0.52,0,0.42,0.03,0.55
,,,,,,,,,,,,,,,,,test 3 ,2021-02-19_14h23.11.336,MarkovTaskNeutreJ2,2020.2.6,Win32,60,,,i,0.25036,0,i,0.06802,0,0,131,131,174,1,175,-0.03,0.46,-0.02,0.71,-0.04,0.38,0.02,0.31
,,,,,,,,,,,,,,,,,test 3 ,2021-02-19_14h23.11.336,MarkovTaskNeutreJ2,2020.2.6,Win32,60,,,i,0.1014,1,i,0.334125,1,0,132,132,61,1,62,0,0.58,0.02,0.59,-0.02,0.51,-0.02,0.49
,,,,,,,,,,,,,,,,,test 3 ,2021-02-19_14h23.11.336,MarkovTaskNeutreJ2,2020.2.6,Win32,60,,,i,0.20074,1,i,0.05086,0,0,133,133,154,1,155,0.01,0.6,0.02,0.7,0,0.48,-0.04,0.3
,,,,,,,,,,,,,,,,,test 3 ,2021-02-19_14h23.11.336,MarkovTaskNeutreJ2,2020.2.6,Win32,60,,,i,0.067605,1,i,0.261055,1,0,134,134,14,1,15,-0.02,0.65,-0.01,0.66,-0.02,0.6,-0.01,0.7
,,,,,,,,,,,,,,,,,test 3 ,2021-02-19_14h23.11.336,MarkovTaskNeutreJ2,2020.2.6,Win32,60,,,i,0.190705,1,i,0.13405,0,0,135,135,166,1,167,0.01,0.59,-0.01,0.68,0,0.47,-0.04,0.3
,,,,,,,,,,,,,,,,,test 3 ,2021-02-19_14h23.11.336,MarkovTaskNeutreJ2,2020.2.6,Win32,60,,,i,0.289745,1,i,0.038495,1,0,136,136,162,1,163,0.01,0.66,0,0.69,-0.04,0.51,0.01,0.36
,,,,,,,,,,,,,,,,,test 3 ,2021-02-19_14h23.11.336,MarkovTaskNeutreJ2,2020.2.6,Win32,60,,,i,0.200245,1,i,0.03389,1,0,137,137,13,1,14,-0.01,0.67,0.01,0.67,-0.01,0.62,0.02,0.71
,,,,,,,,,,,,,,,,,test 3 ,2021-02-19_14h23.11.336,MarkovTaskNeutreJ2,2020.2.6,Win32,60,,,i,0.25026,1,i,0.09412,1,0,138,138,58,1,59,0.01,0.6,-0.04,0.55,-0.03,0.54,-0.03,0.49
,,,,,,,,,,,,,,,,,test 3 ,2021-02-19_14h23.11.336,MarkovTaskNeutreJ2,2020.2.6,Win32,60,,,i,0.11667,0,i,0.10068,1,0,139,139,2,1,3,0.05,0.6,0.03,0.51,0.01,0.53,0.01,0.53
,,,,,,,,,,,,,,,,,test 3 ,2021-02-19_14h23.11.336,MarkovTaskNeutreJ2,2020.2.6,Win32,60,,,i,0.067205,0,i,0.23408,1,0,140,140,135,1,136,-0.01,0.72,-0.02,0.7,0.04,0.47,-0.03,0.26
,,,,,,,,,,,,,,,,,test 3 ,2021-02-19_14h23.11.336,MarkovTaskNeutreJ2,2020.2.6,Win32,60,,,i,0.000965,1,i,0.68348,1,0,141,141,10,1,11,-0.02,0.66,0.01,0.65,0.01,0.61,-0.03,0.67
,,,,,,,,,,,,,,,,,test 3 ,2021-02-19_14h23.11.336,MarkovTaskNeutreJ2,2020.2.6,Win32,60,,,i,0.783605,0,i,0.43314,0,0,142,142,1,1,2,0,0.55,-0.03,0.48,0.01,0.52,0.01,0.52
,,,,,,,,,,,,,,,,,test 3 ,2021-02-19_14h23.11.336,MarkovTaskNeutreJ2,2020.2.6,Win32,60,,,i,0.085175,0,i,0.11755,1,0,143,143,15,1,16,0.01,0.66,-0.03,0.63,-0.02,0.58,0.02,0.72
,,,,,,,,,,,,,,,,,test 3 ,2021-02-19_14h23.11.336,MarkovTaskNeutreJ2,2020.2.6,Win32,60,,,i,0.034475,1,i,0.18338,1,0,144,144,20,1,21,0.06,0.64,0,0.56,-0.01,0.54,0.04,0.69
,,,,,,,,,,,,,,,,,test 3 ,2021-02-19_14h23.11.336,MarkovTaskNeutreJ2,2020.2.6,Win32,60,,,i,0.365835,0,i,0.367075,1,0,145,145,51,1,52,0,0.62,-0.04,0.62,-0.01,0.58,-0.04,0.63
,,,,,,,,,,,,,,,,,test 3 ,2021-02-19_14h23.11.336,MarkovTaskNeutreJ2,2020.2.6,Win32,60,,,i,0.766875,1,i,0.10119,1,0,146,146,160,1,161,0,0.62,-0.02,0.7,-0.04,0.51,0,0.32
,,,,,,,,,,,,,,,,,test 3 ,2021-02-19_14h23.11.336,MarkovTaskNeutreJ2,2020.2.6,Win32,60,,,i,1.907315,1,i,0.03392,0,0,147,147,141,1,142,0,0.7,0.04,0.74,0.06,0.58,-0.01,0.25
,,,,,,,,,,,,,,,,,test 3 ,2021-02-19_14h23.11.336,MarkovTaskNeutreJ2,2020.2.6,Win32,60,,,i,0.10671,1,i,0.183005,1,0,148,148,22,1,23,0.04,0.71,0.04,0.61,0.01,0.56,0.01,0.69
,,,,,,,,,,,,,,,,,test 3 ,2021-02-19_14h23.11.336,MarkovTaskNeutreJ2,2020.2.6,Win32,60,,,i,0.037635,1,i,0.02332,1,0,149,149,151,1,152,0.02,0.63,-0.02,0.68,-0.01,0.49,0.01,0.26
,,,,,,,,,,,,,,,,,test 3 ,2021-02-19_14h23.11.336,MarkovTaskNeutreJ2,2020.2.6,Win32,60,,,i,0.08389,0,i,0.03386,0,0,150,150,107,1,108,-0.01,0.63,-0.04,0.67,-0.03,0.36,0,0.41
,,,,,,,,,,,,,,,,,test 3 ,2021-02-19_14h23.11.336,MarkovTaskNeutreJ2,2020.2.6,Win32,60,,,i,0.07999,1,i,0.051205,0,0,151,151,67,1,68,0.02,0.61,-0.01,0.53,0.01,0.54,0.01,0.47
,,,,,,,,,,,,,,,,,test 3 ,2021-02-19_14h23.11.336,MarkovTaskNeutreJ2,2020.2.6,Win32,60,,,i,0.13379,1,i,0.083455,0,0,152,152,178,1,179,-0.02,0.44,-0.01,0.67,-0.01,0.41,-0.01,0.3
,,,,,,,,,,,,,,,,,test 3 ,2021-02-19_14h23.11.336,MarkovTaskNeutreJ2,2020.2.6,Win32,60,,,i,0.00091,0,i,0.00128,1,0,153,153,192,1,193,-0.01,0.35,0,0.74,-0.02,0.27,-0.01,0.27
,,,,,,,,,,,,,,,,,test 3 ,2021-02-19_14h23.11.336,MarkovTaskNeutreJ2,2020.2.6,Win32,60,,,i,0.08362,1,i,0.20087,0,0,154,154,158,1,159,0.03,0.63,0.01,0.74,-0.02,0.52,0.06,0.35
,,,,,,,,,,,,,,,,,test 3 ,2021-02-19_14h23.11.336,MarkovTaskNeutreJ2,2020.2.6,Win32,60,,,i,0.000935,1,i,0.20047,1,0,155,155,179,1,180,-0.03,0.41,-0.02,0.65,0.01,0.42,-0.03,0.27
,,,,,,,,,,,,,,,,,test 3 ,2021-02-19_14h23.11.336,MarkovTaskNeutreJ2,2020.2.6,Win32,60,,,i,0.15049,1,i,12.83966,1,0,156,156,186,1,187,-0.05,0.42,-0.01,0.69,0.04,0.31,-0.04,0.25
,,,,,,,,,,,,,,,,,test 3 ,2021-02-19_14h23.11.336,MarkovTaskNeutreJ2,2020.2.6,Win32,60,,,i,0.13393,1,i,0.133995,0,0,157,157,8,1,9,0.02,0.67,0.03,0.59,-0.02,0.6,0.02,0.66
,,,,,,,,,,,,,,,,,test 3 ,2021-02-19_14h23.11.336,MarkovTaskNeutreJ2,2020.2.6,Win32,60,,,i,0.13443,1,i,0.23375,1,0,158,158,26,1,27,-0.02,0.71,0,0.63,-0.03,0.58,-0.01,0.7
,,,,,,,,,,,,,,,,,test 3 ,2021-02-19_14h23.11.336,MarkovTaskNeutreJ2,2020.2.6,Win32,60,,,i,0.09924,1,i,0.15151,1,0,159,159,45,1,46,0.02,0.74,-0.03,0.62,0.01,0.61,-0.05,0.68
,,,,,,,,,,,,,,,,,test 3 ,2021-02-19_14h23.11.336,MarkovTaskNeutreJ2,2020.2.6,Win32,60,,,i,0.019425,1,i,0.21607,0,0,160,160,147,1,148,0.03,0.59,-0.01,0.71,-0.02,0.56,0.01,0.31
,,,,,,,,,,,,,,,,,test 3 ,2021-02-19_14h23.11.336,MarkovTaskNeutreJ2,2020.2.6,Win32,60,,,i,0.466765,1,i,6.495045,0,0,161,161,88,1,89,-0.03,0.69,0.01,0.56,0.02,0.35,-0.03,0.45
,,,,,,,,,,,,,,,,,test 3 ,2021-02-19_14h23.11.336,MarkovTaskNeutreJ2,2020.2.6,Win32,60,,,i,0.085055,1,i,0.017585,0,0,162,162,109,1,110,0.03,0.68,-0.02,0.65,0,0.35,-0.01,0.42
