"ExpName"	"Trial"	"Stay"	"PrReward"	"PrTransition"	"RT1"	"RT2"	"Choice1"	"Choice2"	"reward"	"transition"	"Time"	"subjID"
"InstructionMarkovVideoG"	11	1	0	0	0.30007	0.41604	"i"	"e"	0	1	1	33
"InstructionMarkovVideoG"	12	0	0	1	0.350795	0.98308	"e"	"e"	1	1	1	33
"InstructionMarkovVideoG"	13	1	1	1	0.250615	0.385545	"e"	"e"	1	1	1	33
"InstructionMarkovVideoG"	14	1	1	1	0.085115	0.452435	"e"	"e"	1	0	1	33
"InstructionMarkovVideoG"	15	1	1	0	0.10003	0.654905	"e"	"i"	1	1	1	33
"InstructionMarkovVideoG"	16	1	1	1	0.304935	0.453465	"e"	"i"	0	1	1	33
"InstructionMarkovVideoG"	17	1	0	1	0.233535	0.76676	"e"	"e"	1	1	1	33
"InstructionMarkovVideoG"	18	1	1	1	0.552175	1.06977	"e"	"e"	0	1	1	33
"InstructionMarkovVideoG"	19	0	0	1	0.28456	0.550605	"i"	"i"	0	1	1	33
"InstructionMarkovVideoG"	20	1	0	1	0.270075	0.3832	"i"	"e"	1	1	1	33
"InstructionMarkovVideoG"	21	1	1	1	0.301295	0.802065	"i"	"e"	0	0	1	33
"InstructionMarkovVideoG"	22	1	0	0	0.53243	0.880015	"i"	"i"	1	0	1	33
"InstructionMarkovVideoG"	23	1	1	0	0.20465	0.7819	"i"	"e"	0	1	1	33
"InstructionMarkovVideoG"	24	1	0	1	0.468805	0.70151	"i"	"i"	1	0	1	33
"InstructionMarkovVideoG"	25	1	1	0	0.235105	0.451765	"i"	"i"	0	0	1	33
"InstructionMarkovVideoG"	26	1	0	0	0.121505	0.88248	"i"	"e"	1	1	1	33
"InstructionMarkovVideoG"	27	1	1	1	0.08554	0.6008	"i"	"i"	0	0	1	33
"InstructionMarkovVideoG"	28	1	0	0	0.48676	0.705625	"i"	"e"	1	1	1	33
"InstructionMarkovVideoG"	29	1	1	1	0.284435	0.582365	"i"	"i"	0	0	1	33
"InstructionMarkovVideoG"	30	0	0	0	0.301505	0.752395	"e"	"e"	0	1	1	33
"InstructionMarkovVideoG"	31	1	0	1	0.53491	0.952075	"e"	"i"	1	1	1	33
"InstructionMarkovVideoG"	32	1	1	1	0.06788	0.60012	"e"	"e"	1	0	1	33
"InstructionMarkovVideoG"	33	1	1	0	0.25062	0.75152	"e"	"e"	0	0	1	33
"InstructionMarkovVideoG"	34	1	0	0	0.15581	0.767685	"e"	"i"	1	1	1	33
"InstructionMarkovVideoG"	35	1	1	1	0.332945	0.534205	"e"	"e"	1	0	1	33
"InstructionMarkovVideoG"	36	1	1	0	0.283935	0.51763	"e"	"i"	1	1	1	33
"InstructionMarkovVideoG"	37	1	1	1	0.299545	0.735	"e"	"i"	0	1	1	33
"InstructionMarkovVideoG"	38	1	0	1	0.282855	0.584905	"e"	"e"	0	1	1	33
"InstructionMarkovVideoG"	39	1	0	1	0.31754	1.250505	"e"	"i"	1	1	1	33
"InstructionMarkovVideoG"	40	1	1	1	0.320275	0.894735	"e"	"e"	0	1	1	33
"InstructionMarkovVideoG"	41	1	0	1	0.18249	0.501025	"e"	"i"	0	1	1	33
"InstructionMarkovVideoG"	42	0	0	1	0.25231	0.652355	"i"	"e"	1	0	1	33
"InstructionMarkovVideoG"	43	1	1	0	0.02201	0.637685	"i"	"i"	0	1	1	33
"InstructionMarkovVideoG"	44	1	0	1	0.20107	0.38564	"i"	"e"	0	1	1	33
"InstructionMarkovVideoG"	45	1	0	1	0.1013	0.903535	"i"	"e"	0	0	1	33
"InstructionMarkovVideoG"	46	1	0	0	0.06708	0.5024	"i"	"e"	0	0	1	33
"InstructionMarkovVideoG"	47	1	0	0	0.11956	0.583445	"i"	"i"	0	1	1	33
"InstructionMarkovVideoG"	48	1	0	1	0.117245	1.003595	"i"	"e"	0	1	1	33
"InstructionMarkovVideoG"	49	1	0	1	0.10028	0.76848	"i"	"i"	0	0	1	33
"InstructionMarkovVideoG"	50	1	0	0	0.184355	0.470115	"i"	"e"	1	0	1	33
"InstructionMarkovVideoG"	51	1	1	0	0.232415	0.384765	"i"	"e"	0	0	1	33
"InstructionMarkovVideoG"	52	1	0	0	0.252205	0.750585	"i"	"e"	1	0	1	33
"InstructionMarkovVideoG"	53	0	1	0	0.37174	0.3823	"e"	"i"	0	1	1	33
"InstructionMarkovVideoG"	54	1	0	1	0.351805	0.401675	"e"	"e"	0	1	1	33
"InstructionMarkovVideoG"	55	1	0	1	0.157645	0.617935	"e"	"e"	0	1	1	33
"InstructionMarkovVideoG"	56	1	0	1	0.183905	0.967435	"e"	"e"	1	0	1	33
"InstructionMarkovVideoG"	57	1	1	0	0.251825	0.63541	"e"	"i"	1	1	1	33
"InstructionMarkovVideoG"	58	1	1	1	0.21841	0.383415	"e"	"e"	1	0	1	33
"InstructionMarkovVideoG"	59	1	1	0	0.56896	1.334975	"e"	"i"	1	1	1	33
"InstructionMarkovVideoG"	60	1	1	1	0.4863	0.484155	"e"	"e"	1	1	1	33
"InstructionMarkovVideoG"	61	1	1	1	0.31721	0.66657	"e"	"e"	0	1	1	33
"InstructionMarkovVideoG"	62	1	0	1	0.28499	0.600505	"e"	"i"	0	1	1	33
"InstructionMarkovVideoG"	63	1	0	1	0.084965	0.685215	"e"	"i"	1	0	1	33
"InstructionMarkovVideoG"	64	1	1	0	0.25093	0.514095	"e"	"e"	1	1	1	33
"InstructionMarkovVideoG"	65	1	1	1	0.237775	0.469525	"e"	"e"	1	1	1	33
"InstructionMarkovVideoG"	66	1	1	1	0.100805	0.518325	"e"	"e"	0	1	1	33
"InstructionMarkovVideoG"	67	1	0	1	0.23515	0.58946	"e"	"i"	0	0	1	33
"InstructionMarkovVideoG"	68	1	0	0	0.184185	0.399905	"e"	"e"	0	1	1	33
"InstructionMarkovVideoG"	69	1	0	1	0.11653	0.36909	"e"	"e"	1	1	1	33
"InstructionMarkovVideoG"	70	1	1	1	0.18465	0.36929	"e"	"i"	1	0	1	33
"InstructionMarkovVideoG"	71	1	1	0	0.16753	0.4031	"e"	"e"	1	1	1	33
"InstructionMarkovVideoG"	72	1	1	1	0.21739	0.413795	"e"	"i"	1	1	1	33
"InstructionMarkovVideoG"	73	1	1	1	0.267805	1.319835	"e"	"e"	1	1	1	33
"InstructionMarkovVideoG"	74	1	1	1	0.417265	0.50161	"e"	"e"	0	1	1	33
"InstructionMarkovVideoG"	75	1	0	1	0.36934	0.449335	"e"	"e"	1	1	1	33
"InstructionMarkovVideoG"	76	1	1	1	0.317415	0.453835	"e"	"e"	1	1	1	33
"InstructionMarkovVideoG"	77	1	1	1	0.249845	0.48501	"e"	"e"	0	1	1	33
"InstructionMarkovVideoG"	78	1	0	1	0.20099	0.871185	"e"	"e"	0	1	1	33
"InstructionMarkovVideoG"	79	1	0	1	0.15193	0.418345	"e"	"e"	0	1	1	33
"InstructionMarkovVideoG"	80	1	0	1	0.21641	1.036035	"e"	"i"	1	0	1	33
"InstructionMarkovVideoG"	81	1	1	0	0.138435	0.55203	"e"	"e"	1	1	1	33
"InstructionMarkovVideoG"	82	1	1	1	0.45299	0.634305	"e"	"i"	1	0	1	33
"InstructionMarkovVideoG"	83	1	1	0	0.184875	0.518055	"e"	"e"	0	1	1	33
"InstructionMarkovVideoG"	84	1	0	1	0.42034	0.552475	"e"	"e"	0	1	1	33
"InstructionMarkovVideoG"	85	0	0	1	0.25401	0.56812	"i"	"i"	1	1	1	33
"InstructionMarkovVideoG"	86	1	1	1	0.26763	0.350105	"i"	"e"	1	0	1	33
"InstructionMarkovVideoG"	87	1	1	0	0.17201	0.733965	"i"	"i"	0	1	1	33
"InstructionMarkovVideoG"	88	1	0	1	0.33347	0.418585	"i"	"i"	1	1	1	33
"InstructionMarkovVideoG"	89	1	1	1	0.23358	0.535815	"i"	"e"	0	0	1	33
"InstructionMarkovVideoG"	90	1	0	0	0.400105	0.73632	"i"	"i"	1	1	1	33
"InstructionMarkovVideoG"	91	1	1	1	0.23793	0.534275	"i"	"i"	0	1	1	33
"InstructionMarkovVideoG"	92	1	0	1	0.001905	0.435875	"i"	"i"	0	1	1	33
"InstructionMarkovVideoG"	93	1	0	1	0.20028	0.436625	"i"	"e"	0	0	1	33
"InstructionMarkovVideoG"	94	1	0	0	0.334575	0.5002	"i"	"i"	0	0	1	33
"InstructionMarkovVideoG"	95	0	0	0	0.35306	0.31866	"e"	"i"	1	1	1	33
"InstructionMarkovVideoG"	96	1	1	1	0.30356	0.40184	"e"	"i"	0	1	1	33
"InstructionMarkovVideoG"	97	1	0	1	0.184965	0.73585	"e"	"i"	1	1	1	33
"InstructionMarkovVideoG"	98	1	1	1	0.137885	0.351435	"e"	"e"	1	0	1	33
"InstructionMarkovVideoG"	99	1	1	0	0.13369	0.417595	"e"	"e"	1	0	1	33
"InstructionMarkovVideoG"	100	1	1	0	0.13777	0.5674	"e"	"i"	0	1	1	33
"InstructionMarkovVideoG"	101	1	0	1	0.0505	0.7346	"e"	"i"	1	1	1	33
"InstructionMarkovVideoG"	102	1	1	1	0.184665	0.501425	"e"	"e"	0	1	1	33
"InstructionMarkovVideoG"	103	1	0	1	0.372145	0.417095	"e"	"e"	1	1	1	33
"InstructionMarkovVideoG"	104	1	1	1	0.300715	0.56861	"e"	"i"	1	0	1	33
"InstructionMarkovVideoG"	105	1	1	0	0.14985	0.985195	"e"	"e"	1	1	1	33
"InstructionMarkovVideoG"	106	1	1	1	0.118305	0.401055	"e"	"e"	0	1	1	33
"InstructionMarkovVideoG"	107	1	0	1	0.30561	0.499585	"e"	"e"	0	1	1	33
"InstructionMarkovVideoG"	108	1	0	1	0.134305	0.51832	"e"	"e"	0	1	1	33
"InstructionMarkovVideoG"	109	1	0	1	0.19994	0.50052	"e"	"e"	0	1	1	33
"InstructionMarkovVideoG"	110	1	0	1	0.250035	0.43582	"e"	"e"	1	1	1	33
"InstructionMarkovVideoG"	111	1	1	1	0.304955	0.65177	"e"	"e"	0	1	1	33
"InstructionMarkovVideoG"	112	1	0	1	0.39865	1.735	"e"	"i"	0	0	1	33
"InstructionMarkovVideoG"	113	1	0	0	0.255625	0.303315	"e"	"e"	0	1	1	33
"InstructionMarkovVideoG"	114	1	0	1	0.121215	0.620015	"e"	"i"	1	1	1	33
"InstructionMarkovVideoG"	115	1	1	1	0.402145	0.55162	"e"	"e"	1	0	1	33
"InstructionMarkovVideoG"	116	1	1	0	0.069405	0.40313	"e"	"i"	1	1	1	33
"InstructionMarkovVideoG"	117	1	1	1	0.10164	0.56925	"e"	"i"	0	0	1	33
"InstructionMarkovVideoG"	118	1	0	0	0.00109	0.418645	"e"	"i"	0	0	1	33
"InstructionMarkovVideoG"	119	1	0	0	0.23468	0.38596	"e"	"e"	1	1	1	33
"InstructionMarkovVideoG"	120	1	1	1	0.251595	0.453215	"e"	"e"	0	0	1	33
"InstructionMarkovVideoG"	121	1	0	0	0.366305	0.53412	"e"	"e"	1	1	1	33
"InstructionMarkovVideoG"	122	1	1	1	0.335	0.61727	"e"	"i"	0	1	1	33
"InstructionMarkovVideoG"	123	0	0	1	0.316415	0.56881	"i"	"e"	0	1	1	33
"InstructionMarkovVideoG"	124	1	0	1	0.30385	0.551555	"i"	"i"	1	1	1	33
"InstructionMarkovVideoG"	125	1	1	1	0.01802	0.337855	"i"	"i"	1	1	1	33
"InstructionMarkovVideoG"	126	1	1	1	0.101755	0.40377	"i"	"e"	0	0	1	33
"InstructionMarkovVideoG"	127	1	0	0	0.234975	0.516095	"i"	"i"	1	1	1	33
"InstructionMarkovVideoG"	128	1	1	1	0.269905	0.43536	"i"	"i"	1	1	1	33
"InstructionMarkovVideoG"	129	1	1	1	0.216845	0.45108	"i"	"e"	0	0	1	33
"InstructionMarkovVideoG"	130	1	0	0	0.31637	0.334475	"i"	"i"	0	1	1	33
"InstructionMarkovVideoG"	131	1	0	1	0.21807	0.382945	"i"	"i"	1	1	1	33
"InstructionMarkovVideoG"	132	1	1	1	0.18939	0.40261	"i"	"e"	0	0	1	33
"InstructionMarkovVideoG"	133	1	0	0	0.05072	0.43527	"i"	"i"	1	1	1	33
"InstructionMarkovVideoG"	134	1	1	1	0.13572	0.38533	"i"	"e"	1	0	1	33
"InstructionMarkovVideoG"	135	1	1	0	0.151045	0.41877	"i"	"i"	1	1	1	33
"InstructionMarkovVideoG"	136	1	1	1	0.282985	0.486975	"i"	"e"	1	0	1	33
"InstructionMarkovVideoG"	137	1	1	0	0.234455	0.3558	"i"	"i"	0	1	1	33
"InstructionMarkovVideoG"	138	1	0	1	0.383505	1.017605	"i"	"e"	1	0	1	33
"InstructionMarkovVideoG"	139	1	1	0	0.26674	0.518375	"i"	"i"	0	1	1	33
"InstructionMarkovVideoG"	140	1	0	1	0.18373	0.387055	"i"	"e"	0	0	1	33
"InstructionMarkovVideoG"	141	1	0	0	0.36759	0.6165	"i"	"e"	1	0	1	33
"InstructionMarkovVideoG"	142	1	1	0	0.318085	0.36795	"i"	"i"	1	1	1	33
"InstructionMarkovVideoG"	143	1	1	1	0.23381	0.550925	"i"	"i"	1	1	1	33
"InstructionMarkovVideoG"	144	1	1	1	0.26846	0.4853	"i"	"i"	1	1	1	33
"InstructionMarkovVideoG"	145	1	1	1	0.33405	0.35162	"i"	"e"	0	0	1	33
"InstructionMarkovVideoG"	146	1	0	0	0.200275	0.318925	"i"	"i"	1	1	1	33
"InstructionMarkovVideoG"	147	1	1	1	0.43622	0.350995	"i"	"i"	1	1	1	33
"InstructionMarkovVideoG"	148	1	1	1	0.204495	0.38571	"i"	"i"	1	1	1	33
"InstructionMarkovVideoG"	149	1	1	1	0.22171	0.38547	"i"	"i"	1	1	1	33
"InstructionMarkovVideoG"	150	1	1	1	0.30161	0.401835	"i"	"e"	1	0	1	33
"InstructionMarkovVideoG"	151	1	1	0	0.217615	0.401595	"i"	"i"	1	1	1	33
"InstructionMarkovVideoG"	152	1	1	1	0.30571	0.385245	"i"	"i"	0	1	1	33
"InstructionMarkovVideoG"	153	1	0	1	0.16739	0.41928	"i"	"i"	0	1	1	33
"InstructionMarkovVideoG"	154	1	0	1	0.184205	0.41904	"i"	"i"	0	1	1	33
"InstructionMarkovVideoG"	155	1	0	1	0.00179	0.44919	"i"	"e"	1	0	1	33
"InstructionMarkovVideoG"	156	1	1	0	0.40152	0.53179	"i"	"i"	0	1	1	33
"InstructionMarkovVideoG"	157	1	0	1	0.30415	0.368845	"i"	"i"	0	1	1	33
"InstructionMarkovVideoG"	158	1	0	1	0.23629	0.352045	"i"	"i"	0	1	1	33
"InstructionMarkovVideoG"	159	1	0	1	0.18743	0.399525	"i"	"i"	0	1	1	33
"InstructionMarkovVideoG"	160	1	0	1	0.28403	0.41729	"i"	"e"	0	0	1	33
"InstructionMarkovVideoG"	161	1	0	0	0.12019	0.38377	"i"	"i"	0	1	1	33
"InstructionMarkovVideoG"	162	0	0	1	0.29951	0.71806	"e"	"e"	0	1	1	33
"InstructionMarkovVideoG"	163	1	0	1	0.28374	0.58399	"e"	"i"	0	0	1	33
"InstructionMarkovVideoG"	164	1	0	0	0.285865	0.665965	"e"	"i"	1	1	1	33
"InstructionMarkovVideoG"	165	1	1	1	0.234725	0.501595	"e"	"i"	0	1	1	33
"InstructionMarkovVideoG"	166	1	0	1	0.1685	0.385765	"e"	"e"	1	1	1	33
"InstructionMarkovVideoG"	167	1	1	1	0.183935	1.11792	"e"	"i"	1	1	1	33
"InstructionMarkovVideoG"	168	1	1	1	0.26863	0.770115	"e"	"e"	0	0	1	33
"InstructionMarkovVideoG"	169	1	0	0	0.150255	0.651	"e"	"e"	0	0	1	33
"InstructionMarkovVideoG"	170	1	0	0	0.068295	0.41843	"e"	"e"	1	0	1	33
"InstructionMarkovVideoG"	171	1	1	0	0.31755	0.4012	"e"	"i"	1	1	1	33
"InstructionMarkovVideoG"	172	1	1	1	0.001415	0.30108	"e"	"e"	0	0	1	33
"InstructionMarkovVideoG"	173	1	0	0	0.41805	0.56662	"e"	"i"	0	1	1	33
"InstructionMarkovVideoG"	174	0	0	1	0.27425	0.40128	"i"	"i"	0	1	1	33
"InstructionMarkovVideoG"	175	1	0	1	0.10077	0.40054	"i"	"i"	0	1	1	33
"InstructionMarkovVideoG"	176	1	0	1	0.150865	0.551485	"i"	"i"	1	1	1	33
"InstructionMarkovVideoG"	177	1	1	1	0.38465	0.38632	"i"	"i"	0	1	1	33
"InstructionMarkovVideoG"	178	1	0	1	0.267305	0.37154	"i"	"i"	1	1	1	33
"InstructionMarkovVideoG"	179	1	1	1	0.30092	0.35186	"i"	"e"	0	0	1	33
"InstructionMarkovVideoG"	180	1	0	0	0.08523	0.451875	"i"	"e"	1	1	1	33
"InstructionMarkovVideoG"	181	1	1	1	0.235755	0.40041	"i"	"i"	0	1	1	33
"InstructionMarkovVideoG"	182	1	0	1	0.087155	0.321555	"i"	"e"	1	1	1	33
"InstructionMarkovVideoG"	183	1	1	1	0.183375	0.319275	"i"	"e"	1	1	1	33
"InstructionMarkovVideoG"	184	1	1	1	0.133045	0.53485	"i"	"i"	1	0	1	33
"InstructionMarkovVideoG"	185	1	1	0	0.150415	0.33445	"i"	"e"	0	1	1	33
"InstructionMarkovVideoG"	186	1	0	1	0.15457	0.284915	"i"	"e"	0	0	1	33
"InstructionMarkovVideoG"	187	1	0	0	0.137435	0.234655	"i"	"i"	1	1	1	33
"InstructionMarkovVideoG"	188	1	1	1	0.43562	0.60045	"i"	"e"	1	0	1	33
"InstructionMarkovVideoG"	189	1	1	0	0.300045	0.58384	"i"	"e"	0	0	1	33
"InstructionMarkovVideoG"	190	1	0	0	0.01622	0.268105	"i"	"i"	1	0	1	33
"InstructionMarkovVideoG"	191	1	1	0	0.33676	0.40214	"i"	"e"	0	1	1	33
"InstructionMarkovVideoG"	192	1	0	1	0.351295	0.36825	"i"	"e"	1	1	1	33
"InstructionMarkovVideoG"	193	1	1	1	0.1345	0.4026	"i"	"e"	0	1	1	33
"InstructionMarkovVideoG"	194	1	0	1	0.30098	0.3193	"i"	"e"	0	1	1	33
"InstructionMarkovVideoG"	195	1	0	1	0.36628	1.052235	"i"	"e"	0	1	1	33
"InstructionMarkovVideoG"	196	1	0	1	0.271845	0.2846	"i"	"e"	0	1	1	33
"InstructionMarkovVideoG"	197	1	0	1	0.23619	0.63481	"i"	"i"	0	1	1	33
"InstructionMarkovVideoG"	198	1	0	1	0.28327	0.46934	"i"	"i"	0	1	1	33
"InstructionMarkovVideoG"	199	1	0	1	0.283925	0.0842	"i"	"e"	0	1	1	33
"InstructionMarkovVideoG"	200	0	0	1	0.402585	0.36758	"e"	"i"	0	0	1	33
"InstructionMarkovVideoG"	11	1	1	1	1.025	0.569175	"e"	"e"	0	0	1	35
"InstructionMarkovVideoG"	12	1	0	0	0.561045	0.875865	"e"	"i"	0	0	1	35
"InstructionMarkovVideoG"	13	1	0	0	0.583515	0.86448	"e"	"e"	1	1	1	35
"InstructionMarkovVideoG"	14	1	1	1	0.82892	0.556165	"e"	"i"	0	0	1	35
"InstructionMarkovVideoG"	15	1	0	0	0.365185	0.55158	"e"	"i"	0	0	1	35
"InstructionMarkovVideoG"	17	1	1	1	0.445515	1.82869	"e"	"e"	1	1	1	35
"InstructionMarkovVideoG"	20	0	1	1	0.460875	0.85141	"i"	"i"	0	1	1	35
"InstructionMarkovVideoG"	22	1	1	0	0.667975	0.947535	"i"	"i"	1	1	1	35
"InstructionMarkovVideoG"	23	1	1	1	1.578325	1.547875	"i"	"e"	1	1	1	35
"InstructionMarkovVideoG"	25	1	0	0	1.04976	1.447095	"i"	"i"	1	1	1	35
"InstructionMarkovVideoG"	27	1	1	0	1.13755	1.268845	"i"	"e"	0	1	1	35
"InstructionMarkovVideoG"	28	1	0	1	0.40098	1.257635	"i"	"e"	1	0	1	35
"InstructionMarkovVideoG"	30	1	1	1	0.91849	1.67481	"i"	"i"	0	1	1	35
"InstructionMarkovVideoG"	31	1	0	1	1.4388	1.286465	"i"	"i"	0	1	1	35
"InstructionMarkovVideoG"	32	1	0	1	0.53005	1.83781	"i"	"i"	1	0	1	35
"InstructionMarkovVideoG"	33	1	1	0	0.523115	0.75137	"i"	"i"	1	1	1	35
"InstructionMarkovVideoG"	34	1	1	1	0.983675	1.20116	"i"	"e"	1	0	1	35
"InstructionMarkovVideoG"	35	1	1	0	0.45602	1.20635	"i"	"e"	1	1	1	35
"InstructionMarkovVideoG"	36	1	1	1	0.61295	1.709305	"i"	"e"	0	0	1	35
"InstructionMarkovVideoG"	37	1	0	0	0.408455	1.07298	"i"	"i"	0	1	1	35
"InstructionMarkovVideoG"	39	1	0	1	0.410955	0.67509	"i"	"i"	0	1	1	35
"InstructionMarkovVideoG"	40	1	0	1	0.486685	0.548155	"i"	"i"	0	1	1	35
"InstructionMarkovVideoG"	41	1	0	1	0.333725	0.767855	"i"	"i"	1	1	1	35
"InstructionMarkovVideoG"	42	1	1	1	0.616775	1.68057	"i"	"i"	1	1	1	35
"InstructionMarkovVideoG"	43	1	1	1	0.97892	1.45289	"i"	"e"	0	1	1	35
"InstructionMarkovVideoG"	44	1	0	1	0.4672	1.583615	"i"	"e"	1	0	1	35
"InstructionMarkovVideoG"	45	1	1	0	0.52723	0.682965	"i"	"i"	0	1	1	35
"InstructionMarkovVideoG"	46	1	0	1	0.42224	0.606425	"i"	"e"	1	1	1	35
"InstructionMarkovVideoG"	47	1	1	1	0.588535	0.71819	"i"	"e"	0	1	1	35
"InstructionMarkovVideoG"	48	1	0	1	0.39209	0.99277	"i"	"i"	0	0	1	35
"InstructionMarkovVideoG"	49	1	0	0	0.38444	1.347405	"i"	"e"	1	1	1	35
"InstructionMarkovVideoG"	51	1	1	0	0.37425	1.04803	"i"	"i"	1	1	1	35
"InstructionMarkovVideoG"	52	1	1	1	0.42871	1.381385	"i"	"e"	0	1	1	35
"InstructionMarkovVideoG"	53	1	0	1	0.41992	1.06833	"i"	"i"	1	1	1	35
"InstructionMarkovVideoG"	55	1	0	1	0.410425	0.875145	"i"	"i"	1	1	1	35
"InstructionMarkovVideoG"	56	1	1	1	0.40699	1.17535	"i"	"i"	1	1	1	35
"InstructionMarkovVideoG"	57	1	1	1	0.6793	1.301175	"i"	"e"	1	1	1	35
"InstructionMarkovVideoG"	60	1	0	0	0.71675	0.480805	"e"	"i"	1	0	1	35
"InstructionMarkovVideoG"	61	1	1	0	0.507195	0.89748	"e"	"i"	0	0	1	35
"InstructionMarkovVideoG"	63	1	1	1	0.46236	1.389	"e"	"i"	1	0	1	35
"InstructionMarkovVideoG"	64	1	1	0	0.572915	1.486575	"e"	"e"	1	0	1	35
"InstructionMarkovVideoG"	67	1	0	1	0.37361	0.66397	"e"	"e"	1	1	1	35
"InstructionMarkovVideoG"	68	1	1	1	0.42747	0.594915	"e"	"e"	0	1	1	35
"InstructionMarkovVideoG"	69	1	0	1	0.434905	0.530305	"e"	"i"	1	1	1	35
"InstructionMarkovVideoG"	70	1	1	1	0.37072	1.524585	"e"	"i"	0	0	1	35
"InstructionMarkovVideoG"	71	1	0	0	0.3585	0.768645	"e"	"e"	0	1	1	35
"InstructionMarkovVideoG"	72	1	0	1	0.64106	1.192355	"e"	"i"	1	0	1	35
"InstructionMarkovVideoG"	73	1	1	0	0.51173	1.219335	"e"	"e"	1	1	1	35
"InstructionMarkovVideoG"	74	1	1	1	0.57812	0.827875	"e"	"i"	0	1	1	35
"InstructionMarkovVideoG"	75	1	0	1	0.34593	0.48539	"e"	"e"	1	1	1	35
"InstructionMarkovVideoG"	76	1	1	1	0.57619	0.89845	"e"	"e"	1	1	1	35
"InstructionMarkovVideoG"	77	1	1	1	0.484775	0.434035	"e"	"i"	1	1	1	35
"InstructionMarkovVideoG"	78	1	1	1	0.559005	1.289645	"e"	"i"	0	0	1	35
"InstructionMarkovVideoG"	79	1	0	0	0.381115	0.902965	"e"	"e"	1	1	1	35
"InstructionMarkovVideoG"	81	1	0	1	0.380885	0.670825	"e"	"e"	1	1	1	35
"InstructionMarkovVideoG"	82	1	1	1	0.41082	0.851195	"e"	"i"	1	0	1	35
"InstructionMarkovVideoG"	83	1	1	0	0.575935	0.96201	"e"	"i"	1	0	1	35
"InstructionMarkovVideoG"	84	1	1	0	0.4742	1.40827	"e"	"e"	0	0	1	35
"InstructionMarkovVideoG"	85	1	0	0	0.302825	0.635255	"e"	"e"	1	1	1	35
"InstructionMarkovVideoG"	86	1	1	1	0.3606	0.827645	"e"	"e"	1	1	1	35
"InstructionMarkovVideoG"	87	1	1	1	0.40893	1.8974	"e"	"e"	1	0	1	35
"InstructionMarkovVideoG"	88	1	1	0	0.500395	1.81692	"e"	"e"	0	0	1	35
"InstructionMarkovVideoG"	89	1	0	0	1.031235	1.23914	"e"	"i"	1	1	1	35
"InstructionMarkovVideoG"	90	1	1	1	0.436485	0.82785	"e"	"i"	0	1	1	35
"InstructionMarkovVideoG"	91	1	0	1	0.40173	1.114045	"e"	"i"	0	0	1	35
"InstructionMarkovVideoG"	92	1	0	0	0.34002	0.583265	"e"	"e"	0	1	1	35
"InstructionMarkovVideoG"	93	1	0	1	0.66244	0.83703	"e"	"i"	0	0	1	35
"InstructionMarkovVideoG"	94	1	0	0	0.32225	0.45408	"e"	"e"	0	0	1	35
"InstructionMarkovVideoG"	95	1	0	0	0.51461	0.815075	"e"	"i"	1	0	1	35
"InstructionMarkovVideoG"	96	1	1	0	0.389215	0.37402	"e"	"i"	1	1	1	35
"InstructionMarkovVideoG"	97	1	1	1	0.43773	0.637165	"e"	"e"	0	1	1	35
"InstructionMarkovVideoG"	98	1	0	1	0.688355	0.48753	"e"	"e"	1	1	1	35
"InstructionMarkovVideoG"	99	1	1	1	0.466925	0.41701	"e"	"e"	0	1	1	35
"InstructionMarkovVideoG"	100	1	0	1	0.366925	0.680645	"e"	"i"	0	0	1	35
"InstructionMarkovVideoG"	102	1	0	1	0.872745	1.134465	"e"	"e"	0	0	1	35
"InstructionMarkovVideoG"	103	1	0	0	0.39177	0.50496	"e"	"e"	1	1	1	35
"InstructionMarkovVideoG"	104	1	1	1	0.363295	1.789855	"e"	"e"	0	0	1	35
"InstructionMarkovVideoG"	105	1	0	0	0.4372	0.404775	"e"	"e"	0	1	1	35
"InstructionMarkovVideoG"	106	1	0	1	0.379055	1.917155	"e"	"i"	1	1	1	35
"InstructionMarkovVideoG"	107	1	1	1	0.695165	0.57239	"e"	"i"	0	0	1	35
"InstructionMarkovVideoG"	108	1	0	0	0.36411	1.182485	"e"	"i"	1	0	1	35
"InstructionMarkovVideoG"	110	1	0	1	0.33895	1.26371	"e"	"i"	1	0	1	35
"InstructionMarkovVideoG"	111	1	1	0	0.43434	1.225465	"e"	"e"	0	0	1	35
"InstructionMarkovVideoG"	112	1	0	0	1.231535	1.103325	"e"	"e"	1	1	1	35
"InstructionMarkovVideoG"	113	1	1	1	1.30614	0.67118	"e"	"e"	1	1	1	35
"InstructionMarkovVideoG"	114	0	1	1	1.466495	0.880935	"i"	"i"	0	1	1	35
"InstructionMarkovVideoG"	115	1	0	1	0.388955	1.669625	"i"	"e"	0	0	1	35
"InstructionMarkovVideoG"	116	1	0	0	0.681815	0.62365	"i"	"i"	1	1	1	35
"InstructionMarkovVideoG"	118	1	0	1	0.356595	0.4474	"e"	"i"	0	1	1	35
"InstructionMarkovVideoG"	119	1	0	1	0.395375	1.19716	"e"	"i"	1	0	1	35
"InstructionMarkovVideoG"	120	1	1	0	0.43499	1.217945	"e"	"e"	1	1	1	35
"InstructionMarkovVideoG"	124	1	0	1	0.32795	1.31597	"e"	"i"	1	0	1	35
"InstructionMarkovVideoG"	125	1	1	0	0.429965	0.83784	"e"	"e"	1	1	1	35
"InstructionMarkovVideoG"	126	0	1	1	0.47532	1.01693	"i"	"i"	1	1	1	35
"InstructionMarkovVideoG"	127	0	1	1	0.73492	1.634155	"e"	"i"	1	1	1	35
"InstructionMarkovVideoG"	128	0	1	1	0.41698	0.70345	"i"	"e"	1	1	1	35
"InstructionMarkovVideoG"	129	0	1	1	0.69815	1.48061	"e"	"e"	1	1	1	35
"InstructionMarkovVideoG"	132	0	1	1	0.385585	0.93911	"e"	"e"	1	1	1	35
"InstructionMarkovVideoG"	133	0	1	1	0.37192	1.678065	"i"	"i"	0	1	1	35
"InstructionMarkovVideoG"	134	0	0	1	0.81054	1.97071	"e"	"i"	1	1	1	35
"InstructionMarkovVideoG"	135	0	1	1	0.387005	0.75643	"i"	"i"	0	1	1	35
"InstructionMarkovVideoG"	137	1	0	0	0.643495	1.650895	"e"	"i"	1	1	1	35
"InstructionMarkovVideoG"	138	0	1	1	0.99148	0.84057	"i"	"i"	0	1	1	35
"InstructionMarkovVideoG"	139	0	0	1	0.62206	0.950205	"e"	"i"	0	0	1	35
"InstructionMarkovVideoG"	140	1	0	0	0.37459	1.33653	"e"	"e"	1	1	1	35
"InstructionMarkovVideoG"	145	1	1	0	0.557425	1.624345	"i"	"e"	0	1	1	35
"InstructionMarkovVideoG"	146	1	0	1	0.76695	0.41617	"i"	"i"	0	1	1	35
"InstructionMarkovVideoG"	147	1	0	1	0.342215	0.409365	"i"	"i"	0	1	1	35
"InstructionMarkovVideoG"	148	1	0	1	0.343525	1.440145	"i"	"e"	1	0	1	35
"InstructionMarkovVideoG"	149	1	1	0	0.343815	0.50745	"i"	"i"	0	1	1	35
"InstructionMarkovVideoG"	150	1	0	1	0.421815	0.861745	"i"	"i"	1	1	1	35
"InstructionMarkovVideoG"	151	1	1	1	1.31415	0.50317	"i"	"i"	1	1	1	35
"InstructionMarkovVideoG"	152	1	1	1	0.545375	0.532905	"i"	"i"	1	1	1	35
"InstructionMarkovVideoG"	153	1	1	1	0.49385	0.62727	"i"	"i"	0	1	1	35
"InstructionMarkovVideoG"	154	1	0	1	0.72861	0.900815	"i"	"e"	1	1	1	35
"InstructionMarkovVideoG"	156	1	0	0	0.527615	0.875525	"e"	"i"	1	0	1	35
"InstructionMarkovVideoG"	157	1	1	0	0.343625	1.003085	"e"	"i"	1	0	1	35
"InstructionMarkovVideoG"	158	1	1	0	0.337095	1.220295	"e"	"e"	1	1	1	35
"InstructionMarkovVideoG"	159	1	1	1	0.514435	1.318925	"e"	"i"	0	1	1	35
"InstructionMarkovVideoG"	160	1	0	1	0.353035	1.491655	"e"	"e"	1	0	1	35
"InstructionMarkovVideoG"	161	1	1	0	0.400065	0.983565	"e"	"e"	1	1	1	35
"InstructionMarkovVideoG"	162	1	1	1	0.4631	0.414575	"e"	"i"	1	1	1	35
"InstructionMarkovVideoG"	163	1	1	1	1.162955	1.398005	"e"	"e"	0	1	1	35
"InstructionMarkovVideoG"	164	1	0	1	0.42857	0.588415	"e"	"i"	0	1	1	35
"InstructionMarkovVideoG"	165	1	0	1	0.331595	0.38334	"e"	"e"	0	1	1	35
"InstructionMarkovVideoG"	166	1	0	1	0.39038	0.92781	"e"	"i"	1	1	1	35
"InstructionMarkovVideoG"	167	0	1	1	0.337965	0.573155	"i"	"e"	1	1	1	35
"InstructionMarkovVideoG"	168	1	1	1	0.404575	0.605175	"i"	"i"	0	1	1	35
"InstructionMarkovVideoG"	169	0	0	1	0.411595	0.87633	"e"	"e"	0	0	1	35
"InstructionMarkovVideoG"	170	0	0	0	0.36812	0.51426	"i"	"e"	0	1	1	35
"InstructionMarkovVideoG"	171	1	0	1	0.323735	0.383345	"i"	"i"	1	0	1	35
"InstructionMarkovVideoG"	172	0	1	0	0.326485	0.394385	"e"	"e"	0	1	1	35
"InstructionMarkovVideoG"	173	0	0	1	0.33733	1.4927	"i"	"e"	0	0	1	35
"InstructionMarkovVideoG"	174	0	0	0	0.44818	0.58358	"e"	"e"	1	1	1	35
"InstructionMarkovVideoG"	175	0	1	1	0.40026	0.686685	"i"	"e"	0	1	1	35
"InstructionMarkovVideoG"	176	0	0	1	0.35397	0.97249	"e"	"i"	0	0	1	35
"InstructionMarkovVideoG"	177	1	0	0	1.18833	0.80581	"e"	"e"	1	1	1	35
"InstructionMarkovVideoG"	178	0	1	1	0.333405	0.768055	"i"	"e"	0	1	1	35
"InstructionMarkovVideoG"	179	0	0	1	1.11143	0.85232	"e"	"i"	0	0	1	35
"InstructionMarkovVideoG"	180	0	0	0	0.63346	1.2241	"i"	"e"	1	0	1	35
"InstructionMarkovVideoG"	181	1	1	0	0.36692	0.680945	"i"	"i"	1	1	1	35
"InstructionMarkovVideoG"	182	1	1	1	1.25145	0.626185	"i"	"i"	0	1	1	35
"InstructionMarkovVideoG"	183	0	0	1	0.47978	0.781535	"e"	"e"	1	1	1	35
"InstructionMarkovVideoG"	184	0	1	1	0.62879	1.10923	"i"	"e"	0	0	1	35
"InstructionMarkovVideoG"	185	1	0	0	0.4005	0.4974	"i"	"i"	0	1	1	35
"InstructionMarkovVideoG"	186	0	0	1	0.354445	0.604785	"e"	"e"	1	1	1	35
"InstructionMarkovVideoG"	188	0	0	0	0.35796	0.81568	"e"	"i"	1	0	1	35
"InstructionMarkovVideoG"	189	1	1	0	0.357845	0.520575	"e"	"e"	1	0	1	35
"InstructionMarkovVideoG"	190	0	1	0	0.57824	0.643985	"i"	"i"	0	1	1	35
"InstructionMarkovVideoG"	191	0	0	1	0.40964	0.56973	"e"	"e"	0	1	1	35
"InstructionMarkovVideoG"	192	0	0	1	0.47361	1.66384	"i"	"e"	1	1	1	35
"InstructionMarkovVideoG"	194	1	1	0	0.383805	1.48795	"e"	"i"	0	0	1	35
"InstructionMarkovVideoG"	196	1	1	1	0.636075	0.6195	"e"	"i"	0	1	1	35
"InstructionMarkovVideoG"	197	1	0	1	0.36133	0.30823	"e"	"e"	0	1	1	35
"InstructionMarkovVideoG"	198	0	0	1	1.014065	1.015165	"i"	"e"	1	0	1	35
"InstructionMarkovVideoG"	199	1	1	0	0.524915	1.856715	"i"	"i"	1	1	1	35
"InstructionMarkovVideoG"	12	1	0	0	0.440445	0.508435	"e"	"e"	1	1	1	45
"InstructionMarkovVideoG"	13	1	1	1	0.53582	0.44159	"e"	"e"	0	1	1	45
"InstructionMarkovVideoG"	14	1	0	1	0.512865	0.542625	"e"	"e"	1	1	1	45
"InstructionMarkovVideoG"	15	1	1	1	0.452025	0.83174	"e"	"i"	1	0	1	45
"InstructionMarkovVideoG"	16	1	1	0	0.451295	0.59557	"e"	"e"	0	1	1	45
"InstructionMarkovVideoG"	17	0	0	1	0.742575	0.765575	"i"	"e"	0	0	1	45
"InstructionMarkovVideoG"	18	1	0	0	0.57851	0.47491	"i"	"i"	1	1	1	45
"InstructionMarkovVideoG"	19	1	1	1	0.603705	0.543825	"i"	"i"	0	1	1	45
"InstructionMarkovVideoG"	20	1	0	1	0.593915	0.39291	"i"	"i"	1	1	1	45
"InstructionMarkovVideoG"	21	1	1	1	0.5374	0.580265	"i"	"i"	0	1	1	45
"InstructionMarkovVideoG"	22	1	0	1	0.471685	0.49184	"i"	"e"	0	1	1	45
"InstructionMarkovVideoG"	23	1	0	1	0.59935	0.53917	"i"	"e"	1	1	1	45
"InstructionMarkovVideoG"	24	1	1	1	0.63344	0.52415	"i"	"e"	1	1	1	45
"InstructionMarkovVideoG"	25	1	1	1	0.595055	1.087345	"i"	"e"	0	0	1	45
"InstructionMarkovVideoG"	26	1	0	0	0.42502	0.50614	"i"	"e"	1	1	1	45
"InstructionMarkovVideoG"	27	1	1	1	0.506185	0.656105	"i"	"e"	1	1	1	45
"InstructionMarkovVideoG"	28	1	1	1	0.49494	0.634745	"i"	"e"	0	1	1	45
"InstructionMarkovVideoG"	29	1	0	1	0.526295	0.412445	"i"	"e"	0	1	1	45
"InstructionMarkovVideoG"	30	0	0	1	0.90583	0.375895	"e"	"e"	0	0	1	45
"InstructionMarkovVideoG"	31	1	0	0	0.71056	0.37019	"e"	"e"	0	1	1	45
"InstructionMarkovVideoG"	32	1	0	1	0.833445	0.47709	"e"	"i"	1	1	1	45
"InstructionMarkovVideoG"	34	1	1	0	0.533895	0.483805	"e"	"i"	0	1	1	45
"InstructionMarkovVideoG"	35	0	0	1	0.536425	0.48513	"i"	"e"	1	1	1	45
"InstructionMarkovVideoG"	36	1	1	1	0.72222	0.469145	"i"	"e"	0	1	1	45
"InstructionMarkovVideoG"	37	1	0	1	0.395555	0.401475	"i"	"e"	0	1	1	45
"InstructionMarkovVideoG"	38	1	0	1	0.451075	0.368685	"i"	"e"	0	0	1	45
"InstructionMarkovVideoG"	39	1	0	0	0.40197	0.375285	"i"	"e"	1	1	1	45
"InstructionMarkovVideoG"	40	1	1	1	0.689075	0.53494	"i"	"e"	1	1	1	45
"InstructionMarkovVideoG"	41	1	1	1	0.650985	0.573085	"i"	"e"	0	1	1	45
"InstructionMarkovVideoG"	42	1	0	1	0.419675	0.625215	"i"	"e"	1	1	1	45
"InstructionMarkovVideoG"	43	1	1	1	0.618195	0.770485	"i"	"i"	1	0	1	45
"InstructionMarkovVideoG"	44	1	1	0	0.60258	0.90806	"i"	"i"	0	0	1	45
"InstructionMarkovVideoG"	45	1	0	0	0.625455	0.41209	"i"	"e"	0	1	1	45
"InstructionMarkovVideoG"	46	1	0	1	0.50931	0.968955	"i"	"i"	1	0	1	45
"InstructionMarkovVideoG"	47	0	1	0	0.669355	0.46117	"e"	"i"	0	1	1	45
"InstructionMarkovVideoG"	48	1	0	1	0.43793	0.483215	"e"	"i"	1	1	1	45
"InstructionMarkovVideoG"	49	1	1	1	0.48458	1.144065	"e"	"e"	0	0	1	45
"InstructionMarkovVideoG"	50	1	0	0	0.572115	0.363515	"e"	"i"	1	1	1	45
"InstructionMarkovVideoG"	51	1	1	1	0.419585	0.56397	"e"	"i"	0	1	1	45
"InstructionMarkovVideoG"	52	1	0	1	1.90878	0.349975	"e"	"e"	0	1	1	45
"InstructionMarkovVideoG"	53	1	0	1	0.293375	0.426465	"e"	"e"	0	1	1	45
"InstructionMarkovVideoG"	54	0	0	1	0.66852	0.42653	"i"	"e"	0	1	1	45
"InstructionMarkovVideoG"	55	1	0	1	0.32182	0.470375	"i"	"i"	0	1	1	45
"InstructionMarkovVideoG"	56	1	0	1	0.3889	0.58391	"i"	"e"	0	1	1	45
"InstructionMarkovVideoG"	57	1	0	1	0.457745	0.36659	"i"	"e"	1	0	1	45
"InstructionMarkovVideoG"	58	0	1	0	0.741395	0.48273	"e"	"e"	0	1	1	45
"InstructionMarkovVideoG"	59	1	0	1	0.409325	0.393195	"e"	"e"	0	1	1	45
"InstructionMarkovVideoG"	60	1	0	1	0.43396	0.36022	"e"	"i"	0	1	1	45
"InstructionMarkovVideoG"	61	1	0	1	0.495365	0.77731	"e"	"i"	1	1	1	45
"InstructionMarkovVideoG"	62	1	1	1	0.40197	0.483925	"e"	"i"	0	1	1	45
"InstructionMarkovVideoG"	63	1	0	1	1.333145	0.44674	"e"	"e"	1	1	1	45
"InstructionMarkovVideoG"	64	1	1	1	0.409115	0.43011	"e"	"e"	1	1	1	45
"InstructionMarkovVideoG"	65	1	1	1	0.33628	0.428115	"e"	"e"	1	1	1	45
"InstructionMarkovVideoG"	66	1	1	1	0.394075	1.60878	"e"	"e"	0	0	1	45
"InstructionMarkovVideoG"	67	1	0	0	0.34	0.524995	"e"	"e"	1	1	1	45
"InstructionMarkovVideoG"	68	1	1	1	0.373125	0.492745	"e"	"e"	1	1	1	45
"InstructionMarkovVideoG"	69	1	1	1	0.27693	0.63566	"e"	"e"	1	1	1	45
"InstructionMarkovVideoG"	70	1	1	1	0.48418	0.41054	"e"	"e"	1	1	1	45
"InstructionMarkovVideoG"	71	1	1	1	0.39452	0.982605	"e"	"i"	0	0	1	45
"InstructionMarkovVideoG"	72	1	0	0	0.38512	0.44033	"e"	"e"	0	1	1	45
"InstructionMarkovVideoG"	73	1	0	1	0.38623	0.406845	"e"	"e"	1	1	1	45
"InstructionMarkovVideoG"	74	1	1	1	0.386595	1.39121	"e"	"e"	1	0	1	45
"InstructionMarkovVideoG"	75	1	1	0	0.40643	0.49676	"e"	"e"	0	1	1	45
"InstructionMarkovVideoG"	76	1	0	1	0.340315	0.46192	"e"	"e"	0	1	1	45
"InstructionMarkovVideoG"	77	1	0	1	0.31999	1.207305	"e"	"e"	0	0	1	45
"InstructionMarkovVideoG"	78	1	0	0	0.35594	0.40249	"e"	"e"	1	1	1	45
"InstructionMarkovVideoG"	79	1	1	1	0.46704	0.47539	"e"	"e"	0	1	1	45
"InstructionMarkovVideoG"	80	1	0	1	0.38464	0.3927	"e"	"i"	0	1	1	45
"InstructionMarkovVideoG"	81	1	0	1	0.30278	0.482125	"e"	"i"	1	1	1	45
"InstructionMarkovVideoG"	82	1	1	1	0.48622	0.4208	"e"	"i"	1	1	1	45
"InstructionMarkovVideoG"	83	1	1	1	0.61003	0.48232	"e"	"i"	1	1	1	45
"InstructionMarkovVideoG"	84	1	1	1	0.358285	0.549765	"e"	"i"	1	1	1	45
"InstructionMarkovVideoG"	85	1	1	1	0.35092	0.427745	"e"	"i"	0	1	1	45
"InstructionMarkovVideoG"	86	1	0	1	0.32607	0.350545	"e"	"i"	1	0	1	45
"InstructionMarkovVideoG"	87	0	1	0	0.350655	0.448235	"i"	"i"	0	1	1	45
"InstructionMarkovVideoG"	88	1	0	1	0.362435	0.45492	"i"	"i"	0	1	1	45
"InstructionMarkovVideoG"	89	1	0	1	0.556465	0.38603	"i"	"e"	1	1	1	45
"InstructionMarkovVideoG"	90	1	1	1	0.47116	0.455095	"i"	"e"	1	1	1	45
"InstructionMarkovVideoG"	91	1	1	1	0.537725	0.38412	"i"	"e"	1	1	1	45
"InstructionMarkovVideoG"	92	1	1	1	0.408575	0.534135	"i"	"e"	1	1	1	45
"InstructionMarkovVideoG"	94	1	0	0	0.33691	0.49306	"i"	"e"	0	1	1	45
"InstructionMarkovVideoG"	95	1	0	1	0.700995	0.344105	"i"	"e"	0	1	1	45
"InstructionMarkovVideoG"	96	1	0	1	0.387	0.45083	"i"	"i"	0	1	1	45
"InstructionMarkovVideoG"	97	1	0	1	0.3344	0.37736	"i"	"i"	0	1	1	45
"InstructionMarkovVideoG"	98	1	0	1	0.30556	0.46812	"i"	"i"	0	1	1	45
"InstructionMarkovVideoG"	99	1	0	1	0.47782	0.34906	"i"	"e"	0	1	1	45
"InstructionMarkovVideoG"	100	0	0	1	0.76688	0.33992	"e"	"e"	1	1	1	45
"InstructionMarkovVideoG"	101	1	1	1	0.355755	0.40509	"e"	"e"	1	0	1	45
"InstructionMarkovVideoG"	102	1	1	0	0.40187	0.50266	"e"	"e"	1	1	1	45
"InstructionMarkovVideoG"	103	1	1	1	0.69279	0.47427	"e"	"e"	0	0	1	45
"InstructionMarkovVideoG"	104	1	0	0	0.51132	0.44543	"e"	"e"	0	1	1	45
"InstructionMarkovVideoG"	105	1	0	1	0.4259	0.69161	"e"	"i"	0	0	1	45
"InstructionMarkovVideoG"	106	1	0	0	0.372685	0.53513	"e"	"e"	0	1	1	45
"InstructionMarkovVideoG"	107	1	0	1	0.41788	0.510745	"e"	"i"	0	1	1	45
"InstructionMarkovVideoG"	108	1	0	1	0.411615	1.023145	"e"	"e"	0	0	1	45
"InstructionMarkovVideoG"	109	1	0	0	0.32541	0.396425	"e"	"i"	0	1	1	45
"InstructionMarkovVideoG"	110	1	0	1	0.510255	0.4499	"e"	"e"	0	1	1	45
"InstructionMarkovVideoG"	111	0	0	1	0.406955	0.30124	"i"	"i"	0	1	1	45
"InstructionMarkovVideoG"	112	1	0	1	0.43542	0.585905	"i"	"i"	1	1	1	45
"InstructionMarkovVideoG"	113	1	1	1	0.318815	0.80696	"i"	"e"	0	0	1	45
"InstructionMarkovVideoG"	114	1	0	0	0.59471	0.3783	"i"	"i"	0	1	1	45
"InstructionMarkovVideoG"	115	1	0	1	0.45909	1.037715	"i"	"i"	1	0	1	45
"InstructionMarkovVideoG"	116	0	1	0	0.502585	0.435145	"e"	"i"	1	1	1	45
"InstructionMarkovVideoG"	117	1	1	1	0.343015	0.53898	"e"	"i"	0	1	1	45
"InstructionMarkovVideoG"	118	1	0	1	0.366455	0.35399	"e"	"i"	1	0	1	45
"InstructionMarkovVideoG"	119	0	1	0	0.90123	0.40243	"i"	"i"	0	1	1	45
"InstructionMarkovVideoG"	120	1	0	1	0.8437	0.469235	"i"	"i"	1	1	1	45
"InstructionMarkovVideoG"	121	1	1	1	0.353925	0.42343	"i"	"i"	1	1	1	45
"InstructionMarkovVideoG"	122	1	1	1	0.318065	1.063125	"i"	"e"	1	0	1	45
"InstructionMarkovVideoG"	123	1	1	0	0.967745	1.86921	"i"	"i"	1	1	1	45
"InstructionMarkovVideoG"	124	1	1	1	0.85584	0.48768	"i"	"i"	0	1	1	45
"InstructionMarkovVideoG"	125	1	0	1	0.387295	0.495745	"i"	"i"	0	1	1	45
"InstructionMarkovVideoG"	126	1	0	1	0.35079	0.903265	"i"	"e"	1	0	1	45
"InstructionMarkovVideoG"	127	0	1	0	0.56808	0.43432	"e"	"e"	1	1	1	45
"InstructionMarkovVideoG"	128	1	1	1	0.457	0.389565	"e"	"e"	1	1	1	45
"InstructionMarkovVideoG"	129	1	1	1	0.45338	1.21827	"e"	"e"	1	0	1	45
"InstructionMarkovVideoG"	130	1	1	0	0.45744	0.417755	"e"	"e"	1	1	1	45
"InstructionMarkovVideoG"	131	1	1	1	0.373335	0.785875	"e"	"e"	0	0	1	45
"InstructionMarkovVideoG"	132	1	0	0	0.418575	0.519545	"e"	"e"	0	0	1	45
"InstructionMarkovVideoG"	134	1	0	0	0.65662	0.80153	"e"	"e"	0	0	1	45
"InstructionMarkovVideoG"	135	0	0	0	0.63481	0.902305	"i"	"e"	1	1	1	45
"InstructionMarkovVideoG"	136	1	1	1	0.68434	0.506015	"i"	"e"	0	1	1	45
"InstructionMarkovVideoG"	137	1	0	1	0.7018	1.135625	"i"	"e"	1	0	1	45
"InstructionMarkovVideoG"	138	0	1	0	0.71597	1.056585	"e"	"i"	0	0	1	45
"InstructionMarkovVideoG"	139	1	0	0	0.40785	0.634925	"e"	"e"	0	0	1	45
"InstructionMarkovVideoG"	140	0	0	0	0.483895	0.685285	"i"	"e"	0	1	1	45
"InstructionMarkovVideoG"	141	0	0	1	0.668455	0.52659	"e"	"e"	0	1	1	45
"InstructionMarkovVideoG"	142	1	0	1	0.391695	0.802725	"e"	"e"	1	1	1	45
"InstructionMarkovVideoG"	143	1	1	1	0.51976	0.6394	"e"	"e"	1	1	1	45
"InstructionMarkovVideoG"	144	1	1	1	0.45182	1.004325	"e"	"i"	1	0	1	45
"InstructionMarkovVideoG"	145	1	1	0	0.54979	0.5692	"e"	"e"	1	1	1	45
"InstructionMarkovVideoG"	146	1	1	1	0.711565	0.684985	"e"	"e"	0	1	1	45
"InstructionMarkovVideoG"	147	1	0	1	0.55271	0.586385	"e"	"i"	0	0	1	45
"InstructionMarkovVideoG"	148	1	0	0	0.65739	0.605815	"e"	"i"	1	1	1	45
"InstructionMarkovVideoG"	149	1	1	1	0.45763	0.435945	"e"	"i"	0	1	1	45
"InstructionMarkovVideoG"	150	1	0	1	0.364855	1.039695	"e"	"e"	1	0	1	45
"InstructionMarkovVideoG"	151	0	1	0	0.647255	0.460645	"i"	"e"	0	1	1	45
"InstructionMarkovVideoG"	152	1	0	1	0.37548	0.35337	"i"	"e"	1	0	1	45
"InstructionMarkovVideoG"	153	0	1	0	0.58204	0.40362	"e"	"e"	1	1	1	45
"InstructionMarkovVideoG"	154	1	1	1	0.468035	0.44103	"e"	"e"	1	1	1	45
"InstructionMarkovVideoG"	155	1	1	1	0.37773	0.58046	"e"	"e"	0	1	1	45
"InstructionMarkovVideoG"	156	1	0	1	0.421205	0.40208	"e"	"e"	1	1	1	45
"InstructionMarkovVideoG"	157	1	1	1	0.35111	0.469185	"e"	"e"	0	1	1	45
"InstructionMarkovVideoG"	158	1	0	1	0.301915	0.40274	"e"	"e"	1	1	1	45
"InstructionMarkovVideoG"	159	1	1	1	0.3584	0.987695	"e"	"i"	0	0	1	45
"InstructionMarkovVideoG"	160	1	0	0	0.56805	0.40188	"e"	"e"	1	0	1	45
"InstructionMarkovVideoG"	161	1	1	0	0.63328	0.568885	"e"	"e"	0	1	1	45
"InstructionMarkovVideoG"	162	0	0	1	0.38428	0.374645	"i"	"e"	0	1	1	45
"InstructionMarkovVideoG"	163	1	0	1	0.48815	0.39483	"i"	"e"	0	1	1	45
"InstructionMarkovVideoG"	164	0	0	1	0.47036	0.30958	"e"	"i"	0	1	1	45
"InstructionMarkovVideoG"	165	1	0	1	0.33859	0.568195	"e"	"i"	1	1	1	45
"InstructionMarkovVideoG"	166	1	1	1	0.341705	0.479295	"e"	"i"	0	1	1	45
"InstructionMarkovVideoG"	167	1	0	1	0.285165	0.412345	"e"	"i"	0	1	1	45
"InstructionMarkovVideoG"	168	0	0	1	0.317435	0.488315	"i"	"e"	1	1	1	45
"InstructionMarkovVideoG"	169	1	1	1	0.351795	0.598195	"i"	"e"	1	1	1	45
"InstructionMarkovVideoG"	170	1	1	1	0.30144	0.472535	"i"	"e"	1	1	1	45
"InstructionMarkovVideoG"	171	1	1	1	0.36805	0.52514	"i"	"e"	1	1	1	45
"InstructionMarkovVideoG"	172	1	1	1	0.34236	0.43542	"i"	"e"	1	1	1	45
"InstructionMarkovVideoG"	173	1	1	1	0.319045	0.419595	"i"	"e"	0	1	1	45
"InstructionMarkovVideoG"	174	1	0	1	0.268935	0.35849	"i"	"e"	0	1	1	45
"InstructionMarkovVideoG"	175	1	0	1	0.301115	0.38723	"i"	"i"	1	1	1	45
"InstructionMarkovVideoG"	176	1	1	1	0.42899	0.3765	"i"	"i"	1	1	1	45
"InstructionMarkovVideoG"	177	1	1	1	0.394855	0.402605	"i"	"i"	1	1	1	45
"InstructionMarkovVideoG"	178	1	1	1	0.350315	0.407075	"i"	"i"	1	1	1	45
"InstructionMarkovVideoG"	179	1	1	1	0.300325	0.395955	"i"	"i"	1	1	1	45
"InstructionMarkovVideoG"	180	1	1	1	0.370605	0.40553	"i"	"i"	0	1	1	45
"InstructionMarkovVideoG"	181	1	0	1	0.292845	0.49199	"i"	"i"	0	1	1	45
"InstructionMarkovVideoG"	182	1	0	1	0.40415	0.325575	"i"	"e"	1	1	1	45
"InstructionMarkovVideoG"	183	1	1	1	0.495605	0.42382	"i"	"e"	0	1	1	45
"InstructionMarkovVideoG"	184	1	0	1	0.3185	0.42696	"i"	"e"	1	1	1	45
"InstructionMarkovVideoG"	185	1	1	1	0.368395	0.425335	"i"	"e"	1	1	1	45
"InstructionMarkovVideoG"	186	1	1	1	0.3236	0.638065	"i"	"e"	1	1	1	45
"InstructionMarkovVideoG"	187	1	1	1	0.336295	0.51872	"i"	"e"	0	1	1	45
"InstructionMarkovVideoG"	188	1	0	1	0.28888	0.34649	"i"	"e"	1	1	1	45
"InstructionMarkovVideoG"	189	1	1	1	0.34299	0.429035	"i"	"e"	0	1	1	45
"InstructionMarkovVideoG"	190	1	0	1	0.315845	0.366155	"i"	"e"	1	1	1	45
"InstructionMarkovVideoG"	191	1	1	1	0.443275	0.475245	"i"	"e"	1	1	1	45
"InstructionMarkovVideoG"	192	1	1	1	0.328665	0.362985	"i"	"e"	0	1	1	45
"InstructionMarkovVideoG"	193	0	0	1	0.40332	0.368885	"e"	"e"	1	1	1	45
"InstructionMarkovVideoG"	194	1	1	1	0.305765	0.41855	"e"	"e"	0	1	1	45
"InstructionMarkovVideoG"	195	1	0	1	0.30113	0.349595	"e"	"e"	1	0	1	45
"InstructionMarkovVideoG"	196	1	1	0	0.3066	0.408325	"e"	"e"	0	1	1	45
"InstructionMarkovVideoG"	197	1	0	1	0.326275	0.29219	"e"	"i"	0	1	1	45
"InstructionMarkovVideoG"	198	1	0	1	0.340075	0.35238	"e"	"i"	1	1	1	45
"InstructionMarkovVideoG"	199	1	1	1	0.321225	0.47913	"e"	"i"	1	1	1	45
"InstructionMarkovVideoG"	200	1	1	1	0.30986	0.437055	"e"	"i"	0	0	1	45
"InstructionMarkovVideoG"	11	1	0	1	0.4886	0.364035	"i"	"i"	1	1	1	57
"InstructionMarkovVideoG"	12	0	1	1	0.37153	0.35866	"e"	"e"	0	0	1	57
"InstructionMarkovVideoG"	13	0	0	0	1.03499	0.23286	"i"	"e"	1	1	1	57
"InstructionMarkovVideoG"	14	0	1	1	0.34047	0.330655	"e"	"e"	1	1	1	57
"InstructionMarkovVideoG"	15	1	1	1	0.319365	0.37268	"e"	"e"	1	0	1	57
"InstructionMarkovVideoG"	16	0	1	0	0.53474	0.40198	"i"	"i"	0	1	1	57
"InstructionMarkovVideoG"	17	1	0	1	0.6187	0.38147	"i"	"e"	1	1	1	57
"InstructionMarkovVideoG"	18	0	1	1	0.36109	0.45217	"e"	"e"	1	0	1	57
"InstructionMarkovVideoG"	19	1	1	0	0.300865	0.45241	"e"	"e"	1	0	1	57
"InstructionMarkovVideoG"	20	1	1	0	0.551075	0.40408	"e"	"i"	1	1	1	57
"InstructionMarkovVideoG"	21	0	1	1	1.169985	0.26429	"i"	"e"	1	1	1	57
"InstructionMarkovVideoG"	22	1	1	1	0.35131	1.13183	"i"	"i"	0	0	1	57
"InstructionMarkovVideoG"	23	0	0	0	0.217705	0.40001	"e"	"i"	0	1	1	57
"InstructionMarkovVideoG"	24	1	0	1	0.434565	0.34821	"e"	"e"	1	1	1	57
"InstructionMarkovVideoG"	25	1	1	1	0.51575	0.265155	"e"	"i"	1	1	1	57
"InstructionMarkovVideoG"	27	1	0	1	0.667675	0.79714	"e"	"i"	1	1	1	57
"InstructionMarkovVideoG"	28	0	1	1	0.634175	0.513995	"i"	"e"	0	1	1	57
"InstructionMarkovVideoG"	29	1	0	1	0.526325	0.700525	"i"	"e"	1	1	1	57
"InstructionMarkovVideoG"	30	0	1	1	0.334785	0.48087	"e"	"e"	1	1	1	57
"InstructionMarkovVideoG"	31	1	1	1	0.42437	0.64715	"e"	"e"	1	1	1	57
"InstructionMarkovVideoG"	32	0	1	1	1.00104	0.77328	"i"	"e"	1	1	1	57
"InstructionMarkovVideoG"	33	1	1	1	0.4402	0.446635	"i"	"i"	0	1	1	57
"InstructionMarkovVideoG"	34	1	0	1	0.37055	0.97006	"i"	"i"	1	0	1	57
"InstructionMarkovVideoG"	36	1	0	0	0.40154	0.75385	"e"	"e"	1	1	1	57
"InstructionMarkovVideoG"	37	1	1	1	1.568425	0.77206	"e"	"e"	1	1	1	57
"InstructionMarkovVideoG"	38	1	1	1	0.50838	0.75496	"e"	"e"	1	1	1	57
"InstructionMarkovVideoG"	39	1	1	1	0.717715	0.73031	"e"	"e"	1	1	1	57
"InstructionMarkovVideoG"	40	1	1	1	0.475555	0.650915	"e"	"e"	1	1	1	57
"InstructionMarkovVideoG"	41	1	1	1	0.441915	0.63455	"e"	"e"	1	1	1	57
"InstructionMarkovVideoG"	42	1	1	1	0.473795	0.763915	"e"	"e"	0	1	1	57
"InstructionMarkovVideoG"	43	1	0	1	0.35121	0.896795	"e"	"e"	1	1	1	57
"InstructionMarkovVideoG"	44	1	1	1	0.98798	0.73181	"e"	"e"	1	1	1	57
"InstructionMarkovVideoG"	45	1	1	1	0.537315	1.064035	"e"	"e"	1	1	1	57
"InstructionMarkovVideoG"	46	1	1	1	0.334275	0.666135	"e"	"e"	0	1	1	57
"InstructionMarkovVideoG"	47	0	0	1	1.068355	1.547585	"i"	"i"	1	1	1	57
"InstructionMarkovVideoG"	48	0	1	1	0.45172	0.6827	"e"	"e"	1	1	1	57
"InstructionMarkovVideoG"	49	1	1	1	0.38913	0.580665	"e"	"e"	1	1	1	57
"InstructionMarkovVideoG"	50	0	1	1	0.399815	1.73199	"i"	"e"	1	1	1	57
"InstructionMarkovVideoG"	51	0	1	1	0.350875	0.69728	"e"	"e"	0	0	1	57
"InstructionMarkovVideoG"	52	1	0	0	0.48664	0.65323	"e"	"i"	0	0	1	57
"InstructionMarkovVideoG"	53	1	0	0	0.483235	0.463775	"e"	"e"	0	1	1	57
"InstructionMarkovVideoG"	54	1	0	1	0.28479	1.563355	"e"	"i"	0	0	1	57
"InstructionMarkovVideoG"	55	1	0	0	0.40126	0.713755	"e"	"e"	1	1	1	57
"InstructionMarkovVideoG"	56	1	1	1	0.36626	0.42081	"e"	"e"	1	1	1	57
"InstructionMarkovVideoG"	57	0	1	1	1.184545	1.352725	"i"	"i"	0	1	1	57
"InstructionMarkovVideoG"	58	0	0	1	0.500925	0.38166	"e"	"e"	1	1	1	57
"InstructionMarkovVideoG"	59	1	1	1	0.305625	0.63262	"e"	"e"	1	1	1	57
"InstructionMarkovVideoG"	60	1	1	1	0.44212	1.384705	"e"	"e"	0	0	1	57
"InstructionMarkovVideoG"	61	1	0	0	0.41738	0.79731	"e"	"e"	0	1	1	57
"InstructionMarkovVideoG"	62	1	0	1	0.719075	0.648625	"e"	"e"	0	1	1	57
"InstructionMarkovVideoG"	63	1	0	1	0.36077	0.64864	"e"	"e"	0	1	1	57
"InstructionMarkovVideoG"	64	1	0	1	0.34037	1.347655	"e"	"e"	1	0	1	57
"InstructionMarkovVideoG"	65	1	1	0	0.94123	0.730905	"e"	"i"	0	0	1	57
"InstructionMarkovVideoG"	66	1	0	0	0.569445	0.42146	"e"	"e"	1	1	1	57
"InstructionMarkovVideoG"	67	1	1	1	0.623105	0.41359	"e"	"e"	0	1	1	57
"InstructionMarkovVideoG"	68	0	0	1	0.66958	0.615635	"i"	"e"	0	1	1	57
"InstructionMarkovVideoG"	69	0	0	1	0.33498	0.696755	"e"	"e"	1	1	1	57
"InstructionMarkovVideoG"	70	1	1	1	0.55497	0.889115	"e"	"e"	0	0	1	57
"InstructionMarkovVideoG"	71	1	0	0	0.366745	1.130545	"e"	"e"	0	0	1	57
"InstructionMarkovVideoG"	72	1	0	0	0.28655	0.70568	"e"	"e"	0	0	1	57
"InstructionMarkovVideoG"	73	1	0	0	0.30782	0.86261	"e"	"e"	1	1	1	57
"InstructionMarkovVideoG"	74	1	1	1	0.43619	0.68708	"e"	"e"	1	1	1	57
"InstructionMarkovVideoG"	75	1	1	1	0.429395	1.10341	"e"	"i"	0	0	1	57
"InstructionMarkovVideoG"	77	1	0	0	0.46843	1.098125	"e"	"e"	0	0	1	57
"InstructionMarkovVideoG"	78	1	0	0	0.674265	0.837565	"e"	"i"	0	0	1	57
"InstructionMarkovVideoG"	79	1	0	0	0.53463	1.133825	"e"	"e"	1	0	1	57
"InstructionMarkovVideoG"	80	0	1	0	0.422435	0.736275	"i"	"e"	0	1	1	57
"InstructionMarkovVideoG"	81	0	0	1	0.48907	0.35197	"e"	"e"	0	1	1	57
"InstructionMarkovVideoG"	82	1	0	1	0.51977	0.847905	"e"	"e"	1	1	1	57
"InstructionMarkovVideoG"	83	1	1	1	1.976625	0.584765	"e"	"e"	0	1	1	57
"InstructionMarkovVideoG"	84	1	0	1	0.458175	0.92259	"e"	"e"	0	1	1	57
"InstructionMarkovVideoG"	85	1	0	1	0.41764	0.56542	"e"	"e"	1	1	1	57
"InstructionMarkovVideoG"	86	1	1	1	0.42149	0.58115	"e"	"e"	1	1	1	57
"InstructionMarkovVideoG"	87	0	1	1	0.71808	0.46621	"i"	"e"	0	1	1	57
"InstructionMarkovVideoG"	88	0	0	1	0.501425	0.87293	"e"	"e"	0	1	1	57
"InstructionMarkovVideoG"	89	1	0	1	0.505345	1.08672	"e"	"e"	0	1	1	57
"InstructionMarkovVideoG"	90	1	0	1	0.42025	0.798625	"e"	"e"	1	1	1	57
"InstructionMarkovVideoG"	91	1	1	1	0.485015	0.414485	"e"	"e"	1	1	1	57
"InstructionMarkovVideoG"	92	0	1	1	0.585975	0.57052	"i"	"i"	1	1	1	57
"InstructionMarkovVideoG"	93	0	1	1	0.485595	0.630365	"e"	"i"	1	1	1	57
"InstructionMarkovVideoG"	94	1	1	1	0.367565	0.431705	"e"	"e"	1	1	1	57
"InstructionMarkovVideoG"	95	1	1	1	0.39115	1.332785	"e"	"i"	0	0	1	57
"InstructionMarkovVideoG"	96	0	0	0	0.50219	0.53036	"i"	"e"	1	0	1	57
"InstructionMarkovVideoG"	97	0	1	0	0.451365	1.804155	"e"	"e"	0	1	1	57
"InstructionMarkovVideoG"	98	0	0	1	0.491475	0.63139	"i"	"i"	0	1	1	57
"InstructionMarkovVideoG"	99	0	0	1	0.33532	1.414485	"e"	"i"	0	1	1	57
"InstructionMarkovVideoG"	100	1	0	1	0.30054	0.38205	"e"	"e"	0	1	1	57
"InstructionMarkovVideoG"	101	0	0	1	0.59065	0.497345	"i"	"e"	0	1	1	57
"InstructionMarkovVideoG"	102	0	0	1	0.28563	0.72062	"e"	"e"	1	0	1	57
"InstructionMarkovVideoG"	103	1	1	0	0.50325	0.781215	"e"	"e"	1	1	1	57
"InstructionMarkovVideoG"	104	1	1	1	0.633845	0.31633	"e"	"e"	1	1	1	57
"InstructionMarkovVideoG"	105	1	1	1	0.76855	0.28444	"e"	"i"	1	1	1	57
"InstructionMarkovVideoG"	106	1	1	1	0.341535	0.548075	"e"	"i"	1	1	1	57
"InstructionMarkovVideoG"	107	1	1	1	0.259135	0.555995	"e"	"e"	0	1	1	57
"InstructionMarkovVideoG"	108	0	0	1	0.358815	0.63084	"i"	"i"	1	1	1	57
"InstructionMarkovVideoG"	109	0	1	1	0.27738	0.6705	"e"	"e"	1	1	1	57
"InstructionMarkovVideoG"	110	1	1	1	0.468315	1.11387	"e"	"e"	0	0	1	57
"InstructionMarkovVideoG"	111	0	0	0	0.468315	0.517895	"i"	"e"	0	0	1	57
"InstructionMarkovVideoG"	112	0	0	0	0.504095	0.423555	"e"	"e"	0	1	1	57
"InstructionMarkovVideoG"	113	1	0	1	0.32544	0.553905	"e"	"e"	1	1	1	57
"InstructionMarkovVideoG"	114	1	1	1	0.501695	0.865535	"e"	"i"	0	0	1	57
"InstructionMarkovVideoG"	115	1	0	0	0.385015	0.61693	"e"	"e"	1	1	1	57
"InstructionMarkovVideoG"	116	1	1	1	0.59076	0.29885	"e"	"e"	0	1	1	57
"InstructionMarkovVideoG"	117	1	0	1	0.31857	0.66714	"e"	"i"	0	1	1	57
"InstructionMarkovVideoG"	118	1	0	1	0.38453	0.431795	"e"	"i"	1	1	1	57
"InstructionMarkovVideoG"	120	1	0	1	1.05872	1.59646	"i"	"e"	1	0	1	57
"InstructionMarkovVideoG"	121	0	1	0	0.351195	0.367685	"e"	"e"	0	1	1	57
"InstructionMarkovVideoG"	122	1	0	1	0.29032	1.06371	"e"	"i"	0	0	1	57
"InstructionMarkovVideoG"	123	1	0	0	0.25096	0.49727	"e"	"e"	0	0	1	57
"InstructionMarkovVideoG"	124	1	0	0	0.30298	0.63099	"e"	"e"	0	1	1	57
"InstructionMarkovVideoG"	125	1	0	1	0.32046	1.231575	"e"	"e"	0	1	1	57
"InstructionMarkovVideoG"	126	1	0	1	0.269935	0.3807	"e"	"e"	1	1	1	57
"InstructionMarkovVideoG"	127	1	1	1	0.284245	0.299745	"e"	"e"	1	1	1	57
"InstructionMarkovVideoG"	128	1	1	1	0.60205	0.388785	"e"	"i"	1	1	1	57
"InstructionMarkovVideoG"	129	1	1	1	0.51853	0.756555	"e"	"e"	0	1	1	57
"InstructionMarkovVideoG"	130	1	0	1	0.284345	0.914365	"e"	"e"	0	0	1	57
"InstructionMarkovVideoG"	131	1	0	0	0.31647	1.71425	"e"	"i"	0	0	1	57
"InstructionMarkovVideoG"	132	1	0	0	0.28918	0.563345	"e"	"e"	0	1	1	57
"InstructionMarkovVideoG"	133	1	0	1	0.30096	0.832245	"e"	"e"	1	1	1	57
"InstructionMarkovVideoG"	134	1	1	1	0.23544	0.397425	"e"	"e"	1	0	1	57
"InstructionMarkovVideoG"	135	1	1	0	0.558725	1.01475	"e"	"e"	0	0	1	57
"InstructionMarkovVideoG"	136	0	0	0	0.4674	0.418255	"i"	"e"	1	0	1	57
"InstructionMarkovVideoG"	137	0	1	0	0.435255	1.647765	"e"	"e"	1	1	1	57
"InstructionMarkovVideoG"	139	1	1	1	0.834755	0.7577	"e"	"i"	1	0	1	57
"InstructionMarkovVideoG"	140	1	1	0	0.45188	0.597045	"e"	"i"	1	0	1	57
"InstructionMarkovVideoG"	141	1	1	0	0.29474	0.397335	"e"	"e"	1	1	1	57
"InstructionMarkovVideoG"	142	1	1	1	0.601505	0.41985	"e"	"i"	1	0	1	57
"InstructionMarkovVideoG"	143	1	1	0	0.31907	0.61469	"e"	"e"	0	1	1	57
"InstructionMarkovVideoG"	144	1	0	1	0.36163	0.497575	"e"	"i"	0	1	1	57
"InstructionMarkovVideoG"	145	1	0	1	0.272095	0.282155	"e"	"e"	1	1	1	57
"InstructionMarkovVideoG"	146	1	1	1	0.23461	0.25253	"e"	"e"	1	1	1	57
"InstructionMarkovVideoG"	147	1	1	1	0.4192	0.53199	"e"	"e"	0	1	1	57
"InstructionMarkovVideoG"	148	1	0	1	0.33551	0.280245	"e"	"e"	0	1	1	57
"InstructionMarkovVideoG"	149	1	0	1	0.27362	0.6967	"e"	"e"	0	1	1	57
"InstructionMarkovVideoG"	150	1	0	1	0.06959	0.38444	"e"	"i"	1	1	1	57
"InstructionMarkovVideoG"	151	1	1	1	0.300785	0.247785	"e"	"e"	1	0	1	57
"InstructionMarkovVideoG"	152	1	1	0	0.352425	0.55047	"e"	"i"	0	0	1	57
"InstructionMarkovVideoG"	153	1	0	0	0.277925	0.48089	"e"	"e"	1	0	1	57
"InstructionMarkovVideoG"	154	0	1	0	0.484605	0.498705	"i"	"e"	0	1	1	57
"InstructionMarkovVideoG"	155	1	0	1	0.284545	0.40624	"i"	"i"	1	1	1	57
"InstructionMarkovVideoG"	156	1	1	1	0.31798	0.362805	"i"	"e"	1	0	1	57
"InstructionMarkovVideoG"	157	1	1	0	0.389315	0.63733	"i"	"e"	0	1	1	57
"InstructionMarkovVideoG"	158	0	0	1	0.102735	0.422625	"e"	"e"	0	0	1	57
"InstructionMarkovVideoG"	159	1	0	0	0.24914	0.41441	"e"	"e"	0	1	1	57
"InstructionMarkovVideoG"	160	0	0	1	0.535255	0.320485	"i"	"e"	1	0	1	57
"InstructionMarkovVideoG"	161	0	1	0	0.25084	0.563475	"e"	"i"	0	0	1	57
"InstructionMarkovVideoG"	162	0	0	0	0.46909	0.589765	"i"	"i"	0	1	1	57
"InstructionMarkovVideoG"	163	1	0	1	0.268115	0.466295	"i"	"e"	1	1	1	57
"InstructionMarkovVideoG"	164	0	1	1	0.235535	0.413785	"e"	"e"	1	1	1	57
"InstructionMarkovVideoG"	165	1	1	1	0.250855	0.34744	"e"	"e"	0	1	1	57
"InstructionMarkovVideoG"	166	1	0	1	0.24906	0.714225	"e"	"e"	0	1	1	57
"InstructionMarkovVideoG"	167	1	0	1	0.241265	0.480305	"e"	"i"	1	1	1	57
"InstructionMarkovVideoG"	168	0	1	1	0.435045	0.937635	"i"	"i"	1	1	1	57
"InstructionMarkovVideoG"	169	0	1	1	0.47027	0.799895	"e"	"e"	1	1	1	57
"InstructionMarkovVideoG"	170	1	1	1	0.333975	0.67335	"e"	"e"	1	0	1	57
"InstructionMarkovVideoG"	171	0	1	0	0.30296	0.67058	"i"	"i"	0	1	1	57
"InstructionMarkovVideoG"	172	1	0	1	0.3254	0.485805	"i"	"e"	1	1	1	57
"InstructionMarkovVideoG"	173	1	1	1	0.27082	0.36576	"i"	"e"	0	1	1	57
"InstructionMarkovVideoG"	174	0	0	1	0.30561	0.36611	"e"	"e"	1	1	1	57
"InstructionMarkovVideoG"	175	1	1	1	0.334475	1.81968	"e"	"e"	1	0	1	57
"InstructionMarkovVideoG"	176	1	1	0	0.47082	1.264055	"e"	"i"	1	1	1	57
"InstructionMarkovVideoG"	177	1	1	1	0.302785	0.77152	"e"	"i"	0	1	1	57
"InstructionMarkovVideoG"	178	0	0	1	0.350085	0.75118	"i"	"i"	1	1	1	57
"InstructionMarkovVideoG"	179	0	1	1	0.30278	0.283565	"e"	"e"	0	0	1	57
"InstructionMarkovVideoG"	180	1	0	0	0.37153	0.452325	"e"	"e"	0	0	1	57
"InstructionMarkovVideoG"	181	1	0	0	0.308975	0.847225	"e"	"e"	0	1	1	57
"InstructionMarkovVideoG"	182	1	0	1	1.206705	0.596955	"e"	"e"	0	1	1	57
"InstructionMarkovVideoG"	183	1	0	1	0.368935	0.367	"e"	"e"	1	0	1	57
"InstructionMarkovVideoG"	184	1	1	0	1.167715	0.86369	"e"	"e"	1	1	1	57
"InstructionMarkovVideoG"	185	1	1	1	0.25425	0.78047	"e"	"i"	1	0	1	57
"InstructionMarkovVideoG"	186	0	1	0	0.490575	0.686125	"i"	"e"	1	1	1	57
"InstructionMarkovVideoG"	187	1	1	1	0.661425	0.50294	"i"	"e"	0	1	1	57
"InstructionMarkovVideoG"	188	0	0	1	0.257875	0.36405	"e"	"e"	1	0	1	57
"InstructionMarkovVideoG"	189	1	1	0	0.32102	0.884965	"e"	"e"	1	1	1	57
"InstructionMarkovVideoG"	190	1	1	1	0.27348	0.71681	"e"	"e"	0	1	1	57
"InstructionMarkovVideoG"	191	0	0	1	0.28807	0.27983	"i"	"e"	0	1	1	57
"InstructionMarkovVideoG"	192	0	0	1	0.273855	0.467935	"e"	"e"	1	1	1	57
"InstructionMarkovVideoG"	193	1	1	1	0.252975	0.333285	"e"	"e"	0	1	1	57
"InstructionMarkovVideoG"	194	0	0	1	0.134295	0.21934	"i"	"e"	0	1	1	57
"InstructionMarkovVideoG"	195	0	0	1	0.334475	0.372415	"e"	"e"	1	0	1	57
"InstructionMarkovVideoG"	197	1	0	0	0.400975	0.647305	"e"	"e"	1	1	1	57
"InstructionMarkovVideoG"	198	1	1	1	0.30176	0.396445	"e"	"e"	0	1	1	57
"InstructionMarkovVideoG"	199	1	0	1	0.268045	0.248885	"e"	"i"	0	1	1	57
"InstructionMarkovVideoG"	200	1	0	1	0.25144	0.181685	"e"	"e"	1	1	1	57
"InstructionMarkovVideoG"	11	1	1	1	0.703385	0.60949	"i"	"i"	0	1	1	59
"InstructionMarkovVideoG"	12	1	0	1	1.230745	0.61646	"i"	"i"	1	1	1	59
"InstructionMarkovVideoG"	13	0	1	1	1.020355	1.0452	"e"	"e"	1	1	1	59
"InstructionMarkovVideoG"	14	0	1	1	1.02643	1.221965	"i"	"i"	0	1	1	59
"InstructionMarkovVideoG"	15	0	0	1	0.575565	1.172165	"e"	"i"	1	0	1	59
"InstructionMarkovVideoG"	16	0	1	0	0.33947	0.67822	"i"	"e"	1	0	1	59
"InstructionMarkovVideoG"	18	1	1	1	0.38934	0.91768	"i"	"e"	0	1	1	59
"InstructionMarkovVideoG"	19	1	0	1	0.30177	0.962365	"i"	"i"	1	1	1	59
"InstructionMarkovVideoG"	20	1	1	1	0.373945	0.695245	"i"	"i"	0	1	1	59
"InstructionMarkovVideoG"	21	0	0	1	0.85245	0.454965	"e"	"e"	1	1	1	59
"InstructionMarkovVideoG"	22	1	1	1	0.401655	0.7715	"e"	"e"	0	1	1	59
"InstructionMarkovVideoG"	23	0	0	1	0.72533	1.505565	"i"	"e"	1	1	1	59
"InstructionMarkovVideoG"	24	0	1	1	0.38622	0.734325	"e"	"i"	1	1	1	59
"InstructionMarkovVideoG"	25	1	1	1	0.77527	0.58511	"e"	"e"	1	1	1	59
"InstructionMarkovVideoG"	26	1	1	1	0.33951	0.98584	"e"	"e"	0	1	1	59
"InstructionMarkovVideoG"	27	0	0	1	0.27067	0.54499	"i"	"e"	0	1	1	59
"InstructionMarkovVideoG"	28	1	0	1	0.508415	0.49938	"i"	"i"	0	0	1	59
"InstructionMarkovVideoG"	29	1	0	0	0.93026	1.360165	"i"	"i"	1	1	1	59
"InstructionMarkovVideoG"	30	1	1	1	1.30268	0.729235	"i"	"i"	0	1	1	59
"InstructionMarkovVideoG"	31	0	0	1	0.37489	0.915645	"e"	"i"	0	0	1	59
"InstructionMarkovVideoG"	32	1	0	0	0.35793	1.37915	"e"	"i"	1	1	1	59
"InstructionMarkovVideoG"	33	0	1	1	0.673715	0.94888	"i"	"e"	1	1	1	59
"InstructionMarkovVideoG"	34	1	1	1	0.4586	0.949765	"i"	"e"	1	1	1	59
"InstructionMarkovVideoG"	35	1	1	1	1.224285	1.67957	"i"	"i"	1	0	1	59
"InstructionMarkovVideoG"	36	0	1	0	0.8619	0.838085	"e"	"i"	1	1	1	59
"InstructionMarkovVideoG"	37	1	1	1	0.4114	0.79973	"e"	"i"	1	1	1	59
"InstructionMarkovVideoG"	38	0	1	1	0.279305	0.901215	"i"	"e"	1	1	1	59
"InstructionMarkovVideoG"	39	1	1	1	0.51952	0.494985	"i"	"e"	1	1	1	59
"InstructionMarkovVideoG"	40	1	1	1	0.32814	0.95019	"i"	"i"	1	0	1	59
"InstructionMarkovVideoG"	42	0	1	1	0.304925	0.64271	"i"	"e"	1	1	1	59
"InstructionMarkovVideoG"	43	1	1	1	0.484835	0.61275	"i"	"e"	1	1	1	59
"InstructionMarkovVideoG"	44	1	1	1	0.30888	0.545015	"i"	"e"	1	1	1	59
"InstructionMarkovVideoG"	45	0	1	1	0.336085	0.795315	"e"	"i"	0	1	1	59
"InstructionMarkovVideoG"	46	0	0	1	0.61652	1.19597	"i"	"e"	0	1	1	59
"InstructionMarkovVideoG"	48	1	0	1	0.33497	0.721515	"e"	"i"	1	1	1	59
"InstructionMarkovVideoG"	49	1	1	1	1.318385	0.537385	"e"	"i"	0	1	1	59
"InstructionMarkovVideoG"	50	0	0	1	0.328145	0.98694	"i"	"e"	1	0	1	59
"InstructionMarkovVideoG"	51	1	1	0	0.76017	0.643385	"i"	"e"	1	0	1	59
"InstructionMarkovVideoG"	52	1	1	0	0.770485	0.632415	"i"	"e"	0	0	1	59
"InstructionMarkovVideoG"	53	0	0	0	0.42852	1.705675	"e"	"e"	1	1	1	59
"InstructionMarkovVideoG"	54	1	1	1	0.53922	1.218	"e"	"i"	1	0	1	59
"InstructionMarkovVideoG"	55	1	1	0	0.38921	1.34743	"e"	"e"	1	1	1	59
"InstructionMarkovVideoG"	56	0	1	1	0.53865	0.71212	"i"	"e"	0	0	1	59
"InstructionMarkovVideoG"	57	0	0	0	0.59664	1.07984	"e"	"i"	1	1	1	59
"InstructionMarkovVideoG"	58	0	1	1	0.32263	1.518745	"i"	"e"	0	1	1	59
"InstructionMarkovVideoG"	59	0	0	1	0.554005	0.67788	"e"	"i"	1	1	1	59
"InstructionMarkovVideoG"	60	0	1	1	0.44081	0.57866	"i"	"i"	0	0	1	59
"InstructionMarkovVideoG"	61	0	0	0	0.35212	1.1295	"e"	"e"	1	1	1	59
"InstructionMarkovVideoG"	62	0	1	1	0.39691	1.070655	"i"	"i"	1	1	1	59
"InstructionMarkovVideoG"	63	1	1	1	0.456135	0.902065	"i"	"e"	1	0	1	59
"InstructionMarkovVideoG"	64	0	1	0	0.39139	0.950135	"e"	"i"	1	1	1	59
"InstructionMarkovVideoG"	65	0	1	1	0.40996	1.429705	"i"	"i"	1	0	1	59
"InstructionMarkovVideoG"	66	1	1	0	0.31186	0.778415	"i"	"i"	0	1	1	59
"InstructionMarkovVideoG"	67	0	0	1	0.38571	0.533955	"e"	"i"	1	1	1	59
"InstructionMarkovVideoG"	68	0	1	1	0.33526	0.9632	"i"	"e"	1	1	1	59
"InstructionMarkovVideoG"	69	1	1	1	0.50442	0.42879	"i"	"e"	0	1	1	59
"InstructionMarkovVideoG"	70	0	0	1	0.380355	0.82648	"e"	"i"	1	1	1	59
"InstructionMarkovVideoG"	71	1	1	1	0.65329	0.493375	"e"	"i"	1	1	1	59
"InstructionMarkovVideoG"	72	0	1	1	0.27816	1.44826	"i"	"i"	1	0	1	59
"InstructionMarkovVideoG"	73	0	1	0	0.86907	0.745325	"e"	"i"	0	1	1	59
"InstructionMarkovVideoG"	74	0	0	1	0.2888	0.856425	"i"	"i"	1	1	1	59
"InstructionMarkovVideoG"	75	1	1	1	0.358235	0.53092	"i"	"i"	1	1	1	59
"InstructionMarkovVideoG"	76	1	1	1	0.30739	0.703525	"i"	"e"	0	0	1	59
"InstructionMarkovVideoG"	77	0	0	0	0.320095	0.564075	"e"	"i"	1	1	1	59
"InstructionMarkovVideoG"	78	1	1	1	0.50209	0.45024	"e"	"i"	1	1	1	59
"InstructionMarkovVideoG"	79	1	1	1	0.568795	1.284765	"e"	"e"	0	0	1	59
"InstructionMarkovVideoG"	81	0	0	0	0.28484	0.94485	"i"	"e"	0	0	1	59
"InstructionMarkovVideoG"	82	1	0	0	0.78553	0.91326	"i"	"e"	0	1	1	59
"InstructionMarkovVideoG"	83	0	0	1	0.270005	0.32482	"e"	"i"	1	1	1	59
"InstructionMarkovVideoG"	85	0	0	1	1.475945	1.462865	"i"	"e"	0	1	1	59
"InstructionMarkovVideoG"	86	0	0	1	1.20271	0.836205	"e"	"i"	1	1	1	59
"InstructionMarkovVideoG"	87	0	1	1	1.50314	1.332165	"i"	"i"	0	0	1	59
"InstructionMarkovVideoG"	88	1	0	0	0.38592	0.91739	"i"	"i"	0	1	1	59
"InstructionMarkovVideoG"	89	1	0	1	0.368695	1.330195	"i"	"e"	0	1	1	59
"InstructionMarkovVideoG"	90	1	0	1	0.51625	0.77892	"i"	"i"	1	1	1	59
"InstructionMarkovVideoG"	92	0	1	1	0.888215	0.90112	"i"	"i"	1	1	1	59
"InstructionMarkovVideoG"	93	0	1	1	0.890635	0.90265	"e"	"i"	0	0	1	59
"InstructionMarkovVideoG"	94	0	0	0	0.65959	0.71136	"i"	"i"	0	1	1	59
"InstructionMarkovVideoG"	95	0	0	1	0.285285	0.704475	"e"	"e"	1	1	1	59
"InstructionMarkovVideoG"	96	1	1	1	0.60502	1.26574	"e"	"e"	0	0	1	59
"InstructionMarkovVideoG"	97	0	0	0	0.228205	0.622565	"i"	"i"	0	1	1	59
"InstructionMarkovVideoG"	98	0	0	1	0.63518	0.67261	"e"	"e"	1	0	1	59
"InstructionMarkovVideoG"	99	1	1	0	0.654025	0.811445	"e"	"i"	1	1	1	59
"InstructionMarkovVideoG"	100	0	1	1	1.059175	1.813565	"i"	"i"	1	1	1	59
"InstructionMarkovVideoG"	101	1	1	1	1.760115	1.20221	"i"	"i"	0	1	1	59
"InstructionMarkovVideoG"	103	1	0	0	1.889155	0.98202	"e"	"e"	1	1	1	59
"InstructionMarkovVideoG"	104	1	1	1	0.919915	1.229055	"e"	"e"	1	1	1	59
"InstructionMarkovVideoG"	105	1	1	1	0.444545	0.57309	"e"	"e"	1	1	1	59
"InstructionMarkovVideoG"	106	0	1	1	0.825025	0.847625	"i"	"i"	1	1	1	59
"InstructionMarkovVideoG"	107	1	1	1	0.4707	0.53233	"i"	"i"	0	1	1	59
"InstructionMarkovVideoG"	108	1	0	1	0.98873	1.032165	"i"	"i"	0	1	1	59
"InstructionMarkovVideoG"	109	0	0	1	0.407665	0.54779	"e"	"e"	0	1	1	59
"InstructionMarkovVideoG"	110	1	0	1	0.87033	0.50072	"e"	"i"	1	1	1	59
"InstructionMarkovVideoG"	111	1	1	1	0.369855	0.65325	"e"	"i"	1	1	1	59
"InstructionMarkovVideoG"	112	0	1	1	0.311055	0.46979	"i"	"e"	0	1	1	59
"InstructionMarkovVideoG"	113	1	0	1	0.24025	1.03274	"i"	"e"	1	0	1	59
"InstructionMarkovVideoG"	114	1	1	0	0.606835	0.77804	"i"	"e"	0	1	1	59
"InstructionMarkovVideoG"	115	1	0	1	0.60068	1.79048	"i"	"e"	1	0	1	59
"InstructionMarkovVideoG"	117	1	0	1	0.278725	1.312955	"i"	"e"	1	1	1	59
"InstructionMarkovVideoG"	118	1	1	1	0.704115	0.83618	"i"	"e"	1	0	1	59
"InstructionMarkovVideoG"	119	1	1	0	1.223605	1.09954	"i"	"e"	1	0	1	59
"InstructionMarkovVideoG"	121	1	0	0	0.82277	1.167575	"i"	"e"	1	0	1	59
"InstructionMarkovVideoG"	122	1	1	0	0.558375	0.914285	"i"	"e"	1	0	1	59
"InstructionMarkovVideoG"	123	1	1	0	0.48517	0.70086	"i"	"i"	0	1	1	59
"InstructionMarkovVideoG"	124	1	0	1	0.385425	1.318855	"i"	"i"	0	1	1	59
"InstructionMarkovVideoG"	125	1	0	1	0.25626	0.68073	"i"	"e"	0	1	1	59
"InstructionMarkovVideoG"	126	1	0	1	0.30077	0.59516	"i"	"e"	0	0	1	59
"InstructionMarkovVideoG"	127	0	0	0	0.45931	1.382995	"e"	"e"	0	1	1	59
"InstructionMarkovVideoG"	128	1	0	1	0.2695	0.66701	"e"	"i"	0	1	1	59
"InstructionMarkovVideoG"	129	1	0	1	0.35183	1.438935	"e"	"e"	1	1	1	59
"InstructionMarkovVideoG"	130	1	1	1	1.164	0.68654	"e"	"i"	0	0	1	59
"InstructionMarkovVideoG"	131	1	0	0	0.29188	1.09575	"e"	"e"	1	1	1	59
"InstructionMarkovVideoG"	132	1	1	1	0.35715	0.478985	"e"	"e"	1	1	1	59
"InstructionMarkovVideoG"	133	1	1	1	0.33469	0.546255	"e"	"e"	0	1	1	59
"InstructionMarkovVideoG"	134	0	0	1	0.285065	0.650775	"i"	"i"	1	1	1	59
"InstructionMarkovVideoG"	135	1	1	1	0.289285	0.58171	"i"	"e"	1	0	1	59
"InstructionMarkovVideoG"	136	1	1	0	0.32968	0.677815	"i"	"e"	1	0	1	59
"InstructionMarkovVideoG"	137	1	1	0	0.362115	0.80021	"i"	"i"	0	1	1	59
"InstructionMarkovVideoG"	138	1	0	1	0.42629	0.57847	"i"	"e"	1	0	1	59
"InstructionMarkovVideoG"	139	1	1	0	0.27815	0.55052	"i"	"i"	0	1	1	59
"InstructionMarkovVideoG"	141	1	1	1	0.38947	0.562235	"i"	"e"	1	1	1	59
"InstructionMarkovVideoG"	142	1	1	1	0.30672	0.853775	"i"	"e"	0	1	1	59
"InstructionMarkovVideoG"	143	1	0	1	0.26267	0.42619	"i"	"e"	0	0	1	59
"InstructionMarkovVideoG"	144	0	0	0	0.29152	0.566925	"e"	"e"	1	1	1	59
"InstructionMarkovVideoG"	145	1	1	1	0.335135	0.64826	"e"	"e"	0	1	1	59
"InstructionMarkovVideoG"	146	1	0	1	0.32622	0.15099	"e"	"e"	1	0	1	59
"InstructionMarkovVideoG"	147	1	1	0	0.668845	0.92274	"e"	"e"	0	0	1	59
"InstructionMarkovVideoG"	148	1	0	0	0.31017	0.43971	"e"	"i"	0	0	1	59
"InstructionMarkovVideoG"	149	0	0	0	0.27101	0.46961	"i"	"e"	0	0	1	59
"InstructionMarkovVideoG"	150	1	0	0	0.534995	1.43682	"i"	"i"	1	1	1	59
"InstructionMarkovVideoG"	151	1	1	1	0.635665	1.04508	"i"	"i"	0	1	1	59
"InstructionMarkovVideoG"	152	0	0	1	0.61937	0.71732	"e"	"e"	1	1	1	59
"InstructionMarkovVideoG"	153	1	1	1	0.36852	0.49758	"e"	"e"	0	1	1	59
"InstructionMarkovVideoG"	154	1	0	1	1.228035	0.483755	"e"	"i"	0	1	1	59
"InstructionMarkovVideoG"	155	0	0	1	0.471015	0.955595	"i"	"e"	0	0	1	59
"InstructionMarkovVideoG"	156	1	0	0	0.518655	0.585255	"i"	"i"	1	0	1	59
"InstructionMarkovVideoG"	157	1	1	0	0.77663	0.842635	"i"	"e"	1	1	1	59
"InstructionMarkovVideoG"	158	1	1	1	0.420845	0.67405	"i"	"e"	0	1	1	59
"InstructionMarkovVideoG"	159	1	0	1	0.25881	1.263155	"i"	"i"	0	1	1	59
"InstructionMarkovVideoG"	160	1	0	1	0.30162	1.13795	"i"	"i"	0	0	1	59
"InstructionMarkovVideoG"	161	0	0	0	0.50339	0.53426	"e"	"e"	0	1	1	59
"InstructionMarkovVideoG"	163	1	0	0	0.25212	1.704915	"i"	"i"	1	1	1	59
"InstructionMarkovVideoG"	164	1	1	1	0.37592	0.54487	"i"	"i"	0	0	1	59
"InstructionMarkovVideoG"	165	1	0	0	0.489435	0.630545	"i"	"i"	0	1	1	59
"InstructionMarkovVideoG"	166	1	0	1	0.251685	0.435965	"i"	"e"	1	0	1	59
"InstructionMarkovVideoG"	167	1	1	0	0.26829	0.830495	"i"	"i"	0	1	1	59
"InstructionMarkovVideoG"	168	0	0	1	0.568255	0.83734	"e"	"i"	1	0	1	59
"InstructionMarkovVideoG"	169	1	1	0	0.323305	1.030355	"e"	"i"	1	0	1	59
"InstructionMarkovVideoG"	170	1	1	0	0.369495	0.86223	"e"	"e"	0	1	1	59
"InstructionMarkovVideoG"	172	0	0	1	0.752555	0.71663	"i"	"e"	1	0	1	59
"InstructionMarkovVideoG"	173	1	1	0	0.48555	1.5305	"i"	"i"	1	1	1	59
"InstructionMarkovVideoG"	174	1	1	1	0.46297	1.73024	"i"	"i"	1	1	1	59
"InstructionMarkovVideoG"	176	1	1	0	0.65314	0.69906	"i"	"e"	1	0	1	59
"InstructionMarkovVideoG"	177	1	1	0	0.97937	1.09534	"i"	"e"	0	1	1	59
"InstructionMarkovVideoG"	179	1	0	1	0.3236	1.196525	"i"	"e"	1	1	1	59
"InstructionMarkovVideoG"	180	1	1	1	0.344455	1.646735	"i"	"i"	0	1	1	59
"InstructionMarkovVideoG"	181	1	0	1	0.289895	1.69668	"i"	"e"	0	0	1	59
"InstructionMarkovVideoG"	182	1	0	0	0.70203	1.947805	"i"	"i"	0	1	1	59
"InstructionMarkovVideoG"	183	0	0	1	0.22786	0.93041	"e"	"i"	1	0	1	59
"InstructionMarkovVideoG"	184	1	1	0	0.34267	0.81254	"e"	"e"	1	1	1	59
"InstructionMarkovVideoG"	185	1	1	1	0.484935	0.80394	"e"	"e"	1	1	1	59
"InstructionMarkovVideoG"	186	1	1	1	0.336705	0.7861	"e"	"i"	1	1	1	59
"InstructionMarkovVideoG"	187	1	1	1	0.38914	1.41316	"e"	"e"	0	1	1	59
"InstructionMarkovVideoG"	188	0	0	1	0.39555	0.64957	"i"	"i"	0	1	1	59
"InstructionMarkovVideoG"	189	1	0	1	0.36284	0.88087	"i"	"e"	1	1	1	59
"InstructionMarkovVideoG"	190	1	1	1	0.40156	0.65396	"i"	"e"	1	0	1	59
"InstructionMarkovVideoG"	191	1	1	0	0.44	0.98709	"i"	"e"	1	0	1	59
"InstructionMarkovVideoG"	192	1	1	0	0.37098	1.231435	"i"	"i"	0	1	1	59
"InstructionMarkovVideoG"	193	1	0	1	0.55206	1.913395	"i"	"e"	0	0	1	59
"InstructionMarkovVideoG"	194	0	0	0	0.32996	0.562365	"e"	"e"	1	1	1	59
"InstructionMarkovVideoG"	195	1	1	1	0.602175	1.22169	"e"	"i"	0	1	1	59
"InstructionMarkovVideoG"	196	1	0	1	0.28605	0.85383	"e"	"i"	0	0	1	59
"InstructionMarkovVideoG"	197	0	0	0	0.45171	1.24686	"i"	"e"	1	1	1	59
"InstructionMarkovVideoG"	198	1	1	1	0.35182	0.60434	"i"	"e"	0	1	1	59
"InstructionMarkovVideoG"	199	1	0	1	0.37543	1.028985	"i"	"e"	0	0	1	59
"InstructionMarkovVideoG"	200	1	0	0	0.35199	0.89798	"i"	"i"	0	0	1	59
"InstructionMarkovVideoG"	11	1	0	1	0.318235	0.511725	"i"	"e"	1	1	1	61
"InstructionMarkovVideoG"	12	1	1	1	0.42611	0.52752	"i"	"e"	1	1	1	61
"InstructionMarkovVideoG"	13	1	1	1	0.57482	0.554415	"i"	"e"	0	1	1	61
"InstructionMarkovVideoG"	14	0	0	1	0.47101	0.70576	"e"	"i"	0	1	1	61
"InstructionMarkovVideoG"	15	1	0	1	0.479015	0.420485	"e"	"e"	0	1	1	61
"InstructionMarkovVideoG"	16	1	0	1	0.40098	0.566145	"e"	"i"	0	1	1	61
"InstructionMarkovVideoG"	17	0	0	1	0.4128	0.47832	"i"	"i"	0	0	1	61
"InstructionMarkovVideoG"	18	1	0	0	0.553005	0.59512	"i"	"e"	0	0	1	61
"InstructionMarkovVideoG"	19	1	0	0	0.360575	1.230415	"i"	"e"	0	1	1	61
"InstructionMarkovVideoG"	20	0	0	1	0.472815	0.467955	"e"	"i"	0	1	1	61
"InstructionMarkovVideoG"	21	0	0	1	0.58722	0.69801	"i"	"i"	1	1	1	61
"InstructionMarkovVideoG"	22	1	1	1	0.557095	0.4649	"i"	"i"	1	1	1	61
"InstructionMarkovVideoG"	23	1	1	1	0.380105	1.027665	"i"	"i"	0	0	1	61
"InstructionMarkovVideoG"	24	1	0	0	0.68751	0.562575	"i"	"i"	1	1	1	61
"InstructionMarkovVideoG"	25	0	1	1	0.29565	0.944475	"e"	"i"	1	1	1	61
"InstructionMarkovVideoG"	26	1	1	1	0.37968	0.73386	"e"	"i"	0	0	1	61
"InstructionMarkovVideoG"	27	1	0	0	0.488275	0.76343	"e"	"i"	0	1	1	61
"InstructionMarkovVideoG"	28	0	0	1	0.42801	0.651675	"i"	"i"	0	1	1	61
"InstructionMarkovVideoG"	29	1	0	1	0.417605	0.58639	"i"	"e"	1	1	1	61
"InstructionMarkovVideoG"	30	1	1	1	0.471615	0.686525	"i"	"i"	1	0	1	61
"InstructionMarkovVideoG"	31	1	1	0	0.509445	1.11389	"i"	"e"	1	1	1	61
"InstructionMarkovVideoG"	32	0	1	1	0.445635	0.56896	"e"	"i"	1	1	1	61
"InstructionMarkovVideoG"	33	0	1	1	0.376585	1.304005	"i"	"i"	1	0	1	61
"InstructionMarkovVideoG"	34	1	1	0	0.371365	0.76687	"i"	"e"	0	1	1	61
"InstructionMarkovVideoG"	35	0	0	1	0.361435	0.504065	"e"	"i"	1	1	1	61
"InstructionMarkovVideoG"	36	0	1	1	0.31617	0.65708	"i"	"i"	1	1	1	61
"InstructionMarkovVideoG"	37	1	1	1	0.47488	0.447745	"i"	"i"	0	1	1	61
"InstructionMarkovVideoG"	38	1	0	1	0.33981	0.483545	"i"	"i"	0	1	1	61
"InstructionMarkovVideoG"	39	0	0	1	0.408465	0.45362	"e"	"i"	1	1	1	61
"InstructionMarkovVideoG"	40	1	1	1	0.4467	0.54716	"e"	"i"	1	1	1	61
"InstructionMarkovVideoG"	41	1	1	1	0.346275	0.451385	"e"	"i"	1	1	1	61
"InstructionMarkovVideoG"	42	1	1	1	0.3351	0.428875	"e"	"i"	0	1	1	61
"InstructionMarkovVideoG"	43	1	0	1	0.271745	0.512085	"e"	"i"	0	0	1	61
"InstructionMarkovVideoG"	44	0	0	0	0.32747	1.103355	"i"	"e"	1	1	1	61
"InstructionMarkovVideoG"	45	1	1	1	0.26161	0.450485	"i"	"e"	1	1	1	61
"InstructionMarkovVideoG"	46	1	1	1	0.381565	0.492375	"i"	"e"	1	1	1	61
"InstructionMarkovVideoG"	47	1	1	1	0.44528	0.41098	"i"	"e"	0	1	1	61
"InstructionMarkovVideoG"	48	1	0	1	0.427635	0.47807	"i"	"i"	0	0	1	61
"InstructionMarkovVideoG"	49	0	0	0	0.441245	0.46784	"e"	"i"	1	0	1	61
"InstructionMarkovVideoG"	50	1	1	0	0.499975	0.682075	"e"	"e"	1	1	1	61
"InstructionMarkovVideoG"	51	1	1	1	0.37338	0.37818	"e"	"i"	1	1	1	61
"InstructionMarkovVideoG"	52	0	1	1	0.276435	0.522235	"i"	"i"	1	0	1	61
"InstructionMarkovVideoG"	53	1	1	0	0.44287	0.530825	"i"	"i"	1	1	1	61
"InstructionMarkovVideoG"	54	0	1	1	0.388385	0.47546	"e"	"i"	1	1	1	61
"InstructionMarkovVideoG"	55	0	1	1	0.378305	0.441165	"i"	"i"	0	1	1	61
"InstructionMarkovVideoG"	56	1	0	1	0.30087	0.48341	"i"	"e"	1	1	1	61
"InstructionMarkovVideoG"	57	1	1	1	0.34347	0.76416	"i"	"e"	0	1	1	61
"InstructionMarkovVideoG"	58	1	0	1	0.303975	0.353725	"i"	"i"	0	1	1	61
"InstructionMarkovVideoG"	59	1	0	1	0.66269	0.506385	"i"	"e"	1	1	1	61
"InstructionMarkovVideoG"	60	1	1	1	0.418695	0.503435	"i"	"e"	1	1	1	61
"InstructionMarkovVideoG"	61	1	1	1	0.28876	0.374075	"i"	"e"	0	1	1	61
"InstructionMarkovVideoG"	62	1	0	1	0.462405	0.387965	"i"	"i"	1	1	1	61
"InstructionMarkovVideoG"	63	1	1	1	0.592105	0.426765	"i"	"i"	1	1	1	61
"InstructionMarkovVideoG"	64	1	1	1	0.288105	0.829285	"i"	"i"	0	0	1	61
"InstructionMarkovVideoG"	65	1	0	0	0.344275	0.935715	"i"	"e"	1	1	1	61
"InstructionMarkovVideoG"	66	1	1	1	0.317715	0.41184	"i"	"e"	1	1	1	61
"InstructionMarkovVideoG"	67	1	1	1	0.21776	0.425205	"i"	"e"	1	0	1	61
"InstructionMarkovVideoG"	68	0	1	0	0.336045	1.179695	"e"	"e"	1	1	1	61
"InstructionMarkovVideoG"	69	1	1	1	0.32188	0.52353	"e"	"e"	0	1	1	61
"InstructionMarkovVideoG"	70	1	0	1	0.302125	0.47752	"e"	"i"	1	1	1	61
"InstructionMarkovVideoG"	71	1	1	1	0.308405	0.726335	"e"	"e"	0	0	1	61
"InstructionMarkovVideoG"	72	1	0	0	0.50168	0.313815	"e"	"i"	1	1	1	61
"InstructionMarkovVideoG"	73	1	1	1	0.30096	0.51173	"e"	"i"	0	0	1	61
"InstructionMarkovVideoG"	74	1	0	0	0.496225	0.60723	"e"	"i"	0	1	1	61
"InstructionMarkovVideoG"	75	0	0	1	0.250565	1.02032	"i"	"i"	1	1	1	61
"InstructionMarkovVideoG"	76	1	1	1	0.429805	0.378425	"i"	"i"	1	1	1	61
"InstructionMarkovVideoG"	77	1	1	1	0.308935	0.68859	"i"	"e"	0	0	1	61
"InstructionMarkovVideoG"	78	1	0	0	0.270565	0.96043	"i"	"i"	0	1	1	61
"InstructionMarkovVideoG"	79	1	0	1	0.42381	0.354185	"i"	"e"	1	1	1	61
"InstructionMarkovVideoG"	80	1	1	1	0.287165	0.46402	"i"	"e"	1	1	1	61
"InstructionMarkovVideoG"	81	1	1	1	0.337015	1.116725	"i"	"i"	0	0	1	61
"InstructionMarkovVideoG"	82	1	0	0	0.441955	0.49394	"i"	"e"	1	1	1	61
"InstructionMarkovVideoG"	83	1	1	1	0.40254	0.36024	"i"	"e"	1	1	1	61
"InstructionMarkovVideoG"	84	1	1	1	0.3259	0.540835	"i"	"i"	1	0	1	61
"InstructionMarkovVideoG"	85	0	1	0	0.38809	0.601205	"e"	"e"	0	0	1	61
"InstructionMarkovVideoG"	86	1	0	0	0.337485	0.444035	"e"	"i"	1	1	1	61
"InstructionMarkovVideoG"	87	1	1	1	0.33696	0.81656	"e"	"i"	1	0	1	61
"InstructionMarkovVideoG"	88	1	1	0	0.335645	1.168295	"e"	"e"	0	1	1	61
"InstructionMarkovVideoG"	89	1	0	1	0.40148	0.517965	"e"	"i"	0	1	1	61
"InstructionMarkovVideoG"	90	1	0	1	0.31824	0.400425	"e"	"e"	0	1	1	61
"InstructionMarkovVideoG"	91	1	0	1	0.40498	0.857385	"e"	"e"	0	0	1	61
"InstructionMarkovVideoG"	92	0	0	0	0.266075	0.488545	"i"	"i"	0	1	1	61
"InstructionMarkovVideoG"	93	1	0	1	0.256575	0.61682	"i"	"e"	0	1	1	61
"InstructionMarkovVideoG"	94	1	0	1	0.497975	1.22887	"i"	"i"	0	0	1	61
"InstructionMarkovVideoG"	95	1	0	0	0.35732	0.48188	"i"	"i"	0	1	1	61
"InstructionMarkovVideoG"	96	1	0	1	0.25848	0.54251	"i"	"e"	1	0	1	61
"InstructionMarkovVideoG"	97	1	1	0	0.33572	0.40793	"i"	"e"	1	1	1	61
"InstructionMarkovVideoG"	98	1	1	1	0.37104	0.44471	"i"	"e"	1	1	1	61
"InstructionMarkovVideoG"	99	1	1	1	0.32279	0.52261	"i"	"e"	1	1	1	61
"InstructionMarkovVideoG"	100	1	1	1	0.484345	0.768835	"i"	"e"	1	1	1	61
"InstructionMarkovVideoG"	101	1	1	1	0.368125	0.46791	"i"	"e"	0	1	1	61
"InstructionMarkovVideoG"	102	0	0	1	0.70596	0.447125	"e"	"i"	1	1	1	61
"InstructionMarkovVideoG"	103	1	1	1	0.268015	0.34797	"e"	"i"	0	1	1	61
"InstructionMarkovVideoG"	104	1	0	1	0.3588	0.41447	"e"	"e"	1	1	1	61
"InstructionMarkovVideoG"	105	1	1	1	0.391535	0.40964	"e"	"e"	0	1	1	61
"InstructionMarkovVideoG"	106	1	0	1	0.53663	0.43707	"e"	"i"	0	0	1	61
"InstructionMarkovVideoG"	107	0	0	0	0.31237	0.51251	"i"	"i"	0	1	1	61
"InstructionMarkovVideoG"	108	1	0	1	0.347825	1.003625	"i"	"i"	1	0	1	61
"InstructionMarkovVideoG"	109	1	1	0	0.370615	0.827345	"i"	"i"	1	0	1	61
"InstructionMarkovVideoG"	110	1	1	0	0.35098	0.61864	"i"	"i"	1	0	1	61
"InstructionMarkovVideoG"	111	1	1	0	0.286125	0.603075	"i"	"e"	0	1	1	61
"InstructionMarkovVideoG"	112	1	0	1	0.3171	0.467905	"i"	"i"	0	0	1	61
"InstructionMarkovVideoG"	113	1	0	0	0.310715	0.048895	"i"	"i"	1	1	1	61
"InstructionMarkovVideoG"	114	1	1	1	0.490015	0.49732	"i"	"i"	1	1	1	61
"InstructionMarkovVideoG"	115	1	1	1	0.37188	0.72009	"i"	"i"	1	1	1	61
"InstructionMarkovVideoG"	116	1	1	1	0.647515	0.87334	"i"	"i"	0	1	1	61
"InstructionMarkovVideoG"	117	1	0	1	0.53429	0.70179	"i"	"i"	1	0	1	61
"InstructionMarkovVideoG"	118	1	1	0	0.3521	0.70008	"i"	"i"	0	1	1	61
"InstructionMarkovVideoG"	119	0	0	1	0.31708	0.50126	"e"	"i"	1	1	1	61
"InstructionMarkovVideoG"	120	1	1	1	0.347285	0.488865	"e"	"i"	0	1	1	61
"InstructionMarkovVideoG"	121	1	0	1	0.199085	0.45243	"e"	"i"	0	0	1	61
"InstructionMarkovVideoG"	122	1	0	0	0.31773	0.55177	"e"	"e"	1	1	1	61
"InstructionMarkovVideoG"	123	1	1	1	0.501445	0.53467	"e"	"e"	1	1	1	61
"InstructionMarkovVideoG"	124	1	1	1	0.315575	0.533275	"e"	"e"	1	1	1	61
"InstructionMarkovVideoG"	125	1	1	1	0.35173	0.43469	"e"	"e"	0	1	1	61
"InstructionMarkovVideoG"	126	1	0	1	0.468805	0.536	"e"	"i"	1	1	1	61
"InstructionMarkovVideoG"	127	1	1	1	0.39306	0.51847	"e"	"i"	0	0	1	61
"InstructionMarkovVideoG"	128	0	0	0	0.45298	0.43414	"i"	"i"	1	0	1	61
"InstructionMarkovVideoG"	130	1	1	1	0.549205	0.871295	"i"	"i"	0	1	1	61
"InstructionMarkovVideoG"	131	1	0	1	0.31816	0.340705	"i"	"e"	1	1	1	61
"InstructionMarkovVideoG"	132	1	1	1	0.399695	0.333905	"i"	"e"	0	1	1	61
"InstructionMarkovVideoG"	133	1	0	1	0.643435	0.551705	"i"	"i"	1	1	1	61
"InstructionMarkovVideoG"	134	1	1	1	0.36852	0.66777	"i"	"i"	1	1	1	61
"InstructionMarkovVideoG"	135	1	1	1	0.356655	0.5064	"i"	"e"	0	1	1	61
"InstructionMarkovVideoG"	136	1	0	1	0.336685	0.57703	"i"	"i"	1	1	1	61
"InstructionMarkovVideoG"	137	1	1	1	0.481865	0.619955	"i"	"i"	1	1	1	61
"InstructionMarkovVideoG"	138	1	1	1	0.28598	0.600605	"i"	"i"	0	1	1	61
"InstructionMarkovVideoG"	139	1	0	1	0.41699	0.741935	"i"	"e"	1	0	1	61
"InstructionMarkovVideoG"	140	1	1	0	0.38598	0.492755	"i"	"e"	1	1	1	61
"InstructionMarkovVideoG"	141	1	1	1	0.318135	0.800205	"i"	"e"	1	0	1	61
"InstructionMarkovVideoG"	142	0	1	0	0.258015	0.43981	"e"	"i"	0	1	1	61
"InstructionMarkovVideoG"	143	1	0	1	0.55691	0.358	"e"	"e"	1	1	1	61
"InstructionMarkovVideoG"	144	1	1	1	0.41007	0.541	"e"	"e"	0	1	1	61
"InstructionMarkovVideoG"	145	1	0	1	0.441295	0.512365	"e"	"i"	1	1	1	61
"InstructionMarkovVideoG"	146	1	1	1	0.95002	0.71632	"e"	"i"	1	1	1	61
"InstructionMarkovVideoG"	147	1	1	1	0.425445	0.668255	"e"	"i"	0	1	1	61
"InstructionMarkovVideoG"	148	1	0	1	0.3123	0.524735	"e"	"e"	1	1	1	61
"InstructionMarkovVideoG"	149	1	1	1	0.35697	0.58711	"e"	"e"	0	1	1	61
"InstructionMarkovVideoG"	150	1	0	1	0.34885	0.43434	"e"	"e"	0	1	1	61
"InstructionMarkovVideoG"	151	1	0	1	0.401865	0.509475	"e"	"i"	1	1	1	61
"InstructionMarkovVideoG"	152	1	1	1	0.47107	0.54175	"e"	"i"	1	1	1	61
"InstructionMarkovVideoG"	153	1	1	1	0.37401	0.60244	"e"	"i"	1	1	1	61
"InstructionMarkovVideoG"	154	1	1	1	0.305795	0.50118	"e"	"i"	1	1	1	61
"InstructionMarkovVideoG"	155	1	1	1	0.332355	0.566465	"e"	"i"	0	1	1	61
"InstructionMarkovVideoG"	156	0	0	1	0.10554	0.79997	"i"	"i"	1	0	1	61
"InstructionMarkovVideoG"	157	1	1	0	1.00185	1.034675	"i"	"e"	1	1	1	61
"InstructionMarkovVideoG"	158	1	1	1	0.333655	0.83426	"i"	"e"	1	0	1	61
"InstructionMarkovVideoG"	159	1	1	0	0.386475	0.502695	"i"	"i"	0	1	1	61
"InstructionMarkovVideoG"	160	1	0	1	0.308245	0.852505	"i"	"i"	1	0	1	61
"InstructionMarkovVideoG"	161	1	1	0	0.3971	0.500015	"i"	"i"	1	0	1	61
"InstructionMarkovVideoG"	162	1	1	0	0.36922	1.274835	"i"	"i"	0	1	1	61
"InstructionMarkovVideoG"	163	0	0	1	0.30347	0.43509	"e"	"i"	0	1	1	61
"InstructionMarkovVideoG"	164	0	0	1	0.40006	0.569715	"i"	"e"	1	1	1	61
"InstructionMarkovVideoG"	165	1	1	1	0.401195	0.55632	"i"	"e"	0	1	1	61
"InstructionMarkovVideoG"	166	1	0	1	0.366645	0.45146	"i"	"i"	0	1	1	61
"InstructionMarkovVideoG"	167	0	0	1	0.670505	0.53679	"e"	"i"	1	1	1	61
"InstructionMarkovVideoG"	168	1	1	1	0.58076	0.55015	"e"	"i"	1	0	1	61
"InstructionMarkovVideoG"	169	1	1	0	0.282165	0.685535	"e"	"i"	0	1	1	61
"InstructionMarkovVideoG"	170	1	0	1	0.46218	0.674225	"e"	"i"	0	1	1	61
"InstructionMarkovVideoG"	171	1	0	1	0.39174	0.867175	"e"	"e"	1	1	1	61
"InstructionMarkovVideoG"	172	1	1	1	0.494805	0.52556	"e"	"e"	1	1	1	61
"InstructionMarkovVideoG"	173	1	1	1	0.40273	0.63287	"e"	"e"	0	1	1	61
"InstructionMarkovVideoG"	174	1	0	1	0.467505	0.40117	"e"	"i"	0	1	1	61
"InstructionMarkovVideoG"	175	1	0	1	0.437875	0.640025	"e"	"e"	0	1	1	61
"InstructionMarkovVideoG"	176	0	0	1	0.63593	0.915675	"i"	"i"	0	1	1	61
"InstructionMarkovVideoG"	177	1	0	1	0.34885	0.453165	"i"	"e"	1	1	1	61
"InstructionMarkovVideoG"	178	1	1	1	0.26991	0.538265	"i"	"e"	1	1	1	61
"InstructionMarkovVideoG"	179	1	1	1	0.427855	0.474285	"i"	"e"	1	1	1	61
"InstructionMarkovVideoG"	180	1	1	1	0.375395	0.955235	"i"	"i"	1	0	1	61
"InstructionMarkovVideoG"	181	1	1	0	0.400885	0.933215	"i"	"i"	1	0	1	61
"InstructionMarkovVideoG"	182	1	1	0	0.43891	0.700095	"i"	"e"	0	1	1	61
"InstructionMarkovVideoG"	183	1	0	1	0.4574	1.18461	"i"	"e"	1	1	1	61
"InstructionMarkovVideoG"	184	1	1	1	0.351805	0.584625	"i"	"e"	0	1	1	61
"InstructionMarkovVideoG"	185	1	0	1	0.33486	0.68534	"i"	"e"	0	1	1	61
"InstructionMarkovVideoG"	186	0	0	1	0.33377	0.70693	"e"	"e"	1	0	1	61
"InstructionMarkovVideoG"	187	1	1	0	0.318435	0.835255	"e"	"i"	0	1	1	61
"InstructionMarkovVideoG"	188	1	0	1	0.5333	0.77842	"e"	"i"	1	1	1	61
"InstructionMarkovVideoG"	189	1	1	1	0.61514	0.64298	"e"	"i"	1	1	1	61
"InstructionMarkovVideoG"	190	1	1	1	0.42113	0.5761	"e"	"i"	1	1	1	61
"InstructionMarkovVideoG"	191	1	1	1	0.35982	0.51797	"e"	"i"	1	1	1	61
"InstructionMarkovVideoG"	192	1	1	1	0.39171	0.55163	"e"	"i"	0	1	1	61
"InstructionMarkovVideoG"	193	1	0	1	0.48467	0.51796	"e"	"e"	1	1	1	61
"InstructionMarkovVideoG"	194	1	1	1	0.461935	1.11648	"e"	"i"	0	0	1	61
"InstructionMarkovVideoG"	195	1	0	0	0.28893	0.66819	"e"	"e"	1	1	1	61
"InstructionMarkovVideoG"	196	1	1	1	0.495575	0.487705	"e"	"e"	1	1	1	61
"InstructionMarkovVideoG"	197	1	1	1	0.38618	0.490015	"e"	"e"	1	1	1	61
"InstructionMarkovVideoG"	198	1	1	1	0.39951	0.551275	"e"	"e"	1	1	1	61
"InstructionMarkovVideoG"	199	1	1	1	0.38687	0.50448	"e"	"e"	0	1	1	61
"InstructionMarkovVideoG"	200	0	0	1	0.26706	0.711915	"i"	"e"	0	1	1	61
"InstructionMarkovVideoG"	11	1	1	1	0.38411	1.233955	"e"	"i"	1	0	1	65
"InstructionMarkovVideoG"	12	1	1	0	0.750305	0.52574	"e"	"e"	1	1	1	65
"InstructionMarkovVideoG"	13	1	1	1	0.45093	0.45087	"e"	"e"	1	1	1	65
"InstructionMarkovVideoG"	14	1	1	1	0.48592	0.376065	"e"	"e"	0	1	1	65
"InstructionMarkovVideoG"	15	1	0	1	0.417005	0.83405	"e"	"e"	1	1	1	65
"InstructionMarkovVideoG"	16	1	1	1	0.42279	0.44759	"e"	"e"	1	1	1	65
"InstructionMarkovVideoG"	17	1	1	1	0.383675	0.369985	"e"	"e"	0	1	1	65
"InstructionMarkovVideoG"	18	1	0	1	0.400725	0.467065	"e"	"e"	1	1	1	65
"InstructionMarkovVideoG"	19	1	1	1	0.500925	0.404505	"e"	"e"	1	1	1	65
"InstructionMarkovVideoG"	20	1	1	1	0.331385	0.404735	"e"	"i"	0	1	1	65
"InstructionMarkovVideoG"	21	1	0	1	0.50008	0.81717	"e"	"i"	0	0	1	65
"InstructionMarkovVideoG"	22	1	0	0	0.40036	0.497185	"e"	"i"	0	0	1	65
"InstructionMarkovVideoG"	23	1	0	0	0.309265	0.32614	"e"	"e"	0	1	1	65
"InstructionMarkovVideoG"	24	0	0	1	1.92266	1.161755	"i"	"e"	0	0	1	65
"InstructionMarkovVideoG"	25	1	0	0	0.913	0.97119	"i"	"e"	0	1	1	65
"InstructionMarkovVideoG"	26	1	0	1	0.316825	0.339215	"i"	"i"	1	0	1	65
"InstructionMarkovVideoG"	27	0	1	0	1.5141	0.46636	"e"	"e"	0	1	1	65
"InstructionMarkovVideoG"	28	0	0	1	0.4508	0.70056	"i"	"e"	0	1	1	65
"InstructionMarkovVideoG"	29	1	0	1	0.775525	0.58704	"i"	"i"	1	1	1	65
"InstructionMarkovVideoG"	30	1	1	1	0.63396	0.47563	"i"	"i"	0	1	1	65
"InstructionMarkovVideoG"	31	1	0	1	0.6005	1.00249	"i"	"i"	1	1	1	65
"InstructionMarkovVideoG"	32	1	1	1	0.50561	0.68595	"i"	"e"	1	1	1	65
"InstructionMarkovVideoG"	33	1	1	1	0.450625	1.549625	"i"	"i"	0	1	1	65
"InstructionMarkovVideoG"	34	1	0	1	0.48946	0.633505	"i"	"e"	0	1	1	65
"InstructionMarkovVideoG"	35	0	0	1	0.779495	0.450365	"e"	"e"	0	1	1	65
"InstructionMarkovVideoG"	36	1	0	1	0.294515	0.46233	"e"	"e"	0	1	1	65
"InstructionMarkovVideoG"	37	1	0	1	0.32667	0.469815	"e"	"i"	0	1	1	65
"InstructionMarkovVideoG"	38	0	0	1	0.366835	0.63375	"i"	"e"	1	1	1	65
"InstructionMarkovVideoG"	39	1	1	1	0.29668	0.923125	"i"	"i"	0	1	1	65
"InstructionMarkovVideoG"	40	1	0	1	0.275925	0.38386	"i"	"e"	1	1	1	65
"InstructionMarkovVideoG"	41	1	1	1	0.383855	0.33447	"i"	"e"	1	1	1	65
"InstructionMarkovVideoG"	42	1	1	1	0.45166	0.36727	"i"	"e"	0	1	1	65
"InstructionMarkovVideoG"	43	1	0	1	0.350415	0.31643	"i"	"e"	0	1	1	65
"InstructionMarkovVideoG"	44	1	0	1	0.31808	0.89955	"i"	"e"	1	0	1	65
"InstructionMarkovVideoG"	45	1	1	0	0.417505	0.426065	"i"	"e"	1	0	1	65
"InstructionMarkovVideoG"	46	1	1	0	0.363675	0.66718	"i"	"i"	0	1	1	65
"InstructionMarkovVideoG"	47	1	0	1	0.442145	0.61721	"i"	"e"	1	1	1	65
"InstructionMarkovVideoG"	48	1	1	1	0.33425	0.423925	"i"	"e"	1	1	1	65
"InstructionMarkovVideoG"	49	1	1	1	0.58338	0.76705	"i"	"e"	1	1	1	65
"InstructionMarkovVideoG"	50	1	1	1	0.311675	0.51801	"i"	"e"	1	1	1	65
"InstructionMarkovVideoG"	51	1	1	1	0.467205	0.717735	"i"	"i"	1	0	1	65
"InstructionMarkovVideoG"	52	1	1	0	1.088015	0.688035	"i"	"e"	0	1	1	65
"InstructionMarkovVideoG"	53	1	0	1	0.396115	0.44966	"i"	"e"	1	1	1	65
"InstructionMarkovVideoG"	54	1	1	1	0.433735	0.500585	"i"	"e"	0	1	1	65
"InstructionMarkovVideoG"	55	1	0	1	0.33609	0.74955	"i"	"i"	0	1	1	65
"InstructionMarkovVideoG"	56	1	0	1	0.29279	0.34406	"i"	"i"	0	1	1	65
"InstructionMarkovVideoG"	57	0	0	1	1.06702	0.31129	"e"	"e"	1	1	1	65
"InstructionMarkovVideoG"	58	1	1	1	0.46575	0.38379	"e"	"e"	1	1	1	65
"InstructionMarkovVideoG"	59	1	1	1	0.363585	0.484055	"e"	"e"	0	1	1	65
"InstructionMarkovVideoG"	60	1	0	1	0.367255	0.55056	"e"	"i"	1	1	1	65
"InstructionMarkovVideoG"	61	1	1	1	0.450475	0.71004	"e"	"e"	0	0	1	65
"InstructionMarkovVideoG"	62	1	0	0	0.350665	0.53955	"e"	"i"	0	0	1	65
"InstructionMarkovVideoG"	63	1	0	0	0.46762	0.586175	"e"	"e"	1	1	1	65
"InstructionMarkovVideoG"	64	1	1	1	0.3452	0.450545	"e"	"e"	1	1	1	65
"InstructionMarkovVideoG"	65	1	1	1	0.333675	0.52552	"e"	"e"	1	1	1	65
"InstructionMarkovVideoG"	66	1	1	1	0.487515	0.46726	"e"	"e"	1	1	1	65
"InstructionMarkovVideoG"	67	1	1	1	0.31732	0.883855	"e"	"i"	1	0	1	65
"InstructionMarkovVideoG"	68	1	1	0	0.417575	0.49976	"e"	"e"	1	1	1	65
"InstructionMarkovVideoG"	69	1	1	1	0.416695	0.417345	"e"	"e"	1	1	1	65
"InstructionMarkovVideoG"	70	1	1	1	0.342455	0.383135	"e"	"e"	0	1	1	65
"InstructionMarkovVideoG"	71	1	0	1	0.38401	0.51341	"e"	"i"	0	1	1	65
"InstructionMarkovVideoG"	72	0	0	1	0.37142	0.72192	"i"	"i"	0	1	1	65
"InstructionMarkovVideoG"	73	1	0	1	0.274545	0.350995	"i"	"e"	1	1	1	65
"InstructionMarkovVideoG"	74	1	1	1	0.324205	0.68391	"i"	"e"	1	1	1	65
"InstructionMarkovVideoG"	75	1	1	1	0.354125	0.42111	"i"	"e"	0	1	1	65
"InstructionMarkovVideoG"	76	1	0	1	0.767115	0.31254	"i"	"e"	1	0	1	65
"InstructionMarkovVideoG"	77	1	1	0	0.322185	0.550685	"i"	"e"	0	1	1	65
"InstructionMarkovVideoG"	78	1	0	1	0.35549	0.83167	"i"	"i"	1	0	1	65
"InstructionMarkovVideoG"	79	1	1	0	0.559945	0.39532	"i"	"i"	0	1	1	65
"InstructionMarkovVideoG"	80	1	0	1	0.25571	1.19961	"i"	"i"	0	1	1	65
"InstructionMarkovVideoG"	81	0	0	1	0.31712	0.40053	"e"	"e"	0	1	1	65
"InstructionMarkovVideoG"	82	0	0	1	0.334375	1.150395	"i"	"i"	1	0	1	65
"InstructionMarkovVideoG"	83	1	1	0	0.350325	0.449795	"i"	"e"	1	1	1	65
"InstructionMarkovVideoG"	84	1	1	1	0.420275	0.47005	"i"	"i"	1	0	1	65
"InstructionMarkovVideoG"	85	1	1	0	0.353235	0.51833	"i"	"e"	0	1	1	65
"InstructionMarkovVideoG"	86	0	0	1	0.3004	0.61696	"e"	"i"	0	0	1	65
"InstructionMarkovVideoG"	87	1	0	0	0.09853	0.607455	"e"	"e"	0	0	1	65
"InstructionMarkovVideoG"	88	0	0	0	0.288045	0.6338	"i"	"i"	1	1	1	65
"InstructionMarkovVideoG"	89	1	1	1	0.31447	0.627495	"i"	"i"	1	1	1	65
"InstructionMarkovVideoG"	90	1	1	1	0.535235	0.440195	"i"	"i"	1	1	1	65
"InstructionMarkovVideoG"	91	1	1	1	0.307895	0.488455	"i"	"i"	1	1	1	65
"InstructionMarkovVideoG"	92	1	1	1	0.417555	0.91705	"i"	"e"	0	0	1	65
"InstructionMarkovVideoG"	93	0	0	0	0.317275	0.450595	"e"	"e"	0	1	1	65
"InstructionMarkovVideoG"	94	0	0	1	0.336065	0.6344	"i"	"i"	1	0	1	65
"InstructionMarkovVideoG"	95	1	1	0	0.34037	1.30242	"i"	"i"	1	1	1	65
"InstructionMarkovVideoG"	96	1	1	1	0.301925	0.434205	"i"	"i"	0	1	1	65
"InstructionMarkovVideoG"	97	0	0	1	0.300815	0.333955	"e"	"e"	1	1	1	65
"InstructionMarkovVideoG"	98	1	1	1	0.283905	0.450405	"e"	"e"	1	1	1	65
"InstructionMarkovVideoG"	99	1	1	1	0.68165	0.624365	"e"	"e"	1	1	1	65
"InstructionMarkovVideoG"	100	1	1	1	0.333835	0.717115	"e"	"i"	0	0	1	65
"InstructionMarkovVideoG"	101	0	0	0	0.348415	0.683755	"i"	"i"	0	1	1	65
"InstructionMarkovVideoG"	102	1	0	1	0.30075	0.25973	"i"	"e"	0	1	1	65
"InstructionMarkovVideoG"	103	0	0	1	0.297335	1.033775	"e"	"i"	0	0	1	65
"InstructionMarkovVideoG"	104	1	0	0	0.350405	0.283005	"e"	"e"	0	1	1	65
"InstructionMarkovVideoG"	105	1	0	1	0.450875	0.53825	"e"	"e"	0	1	1	65
"InstructionMarkovVideoG"	106	1	0	1	0.28158	0.46353	"e"	"i"	1	1	1	65
"InstructionMarkovVideoG"	107	1	1	1	0.319915	0.383855	"e"	"i"	1	1	1	65
"InstructionMarkovVideoG"	108	1	1	1	0.26742	0.73397	"e"	"e"	0	0	1	65
"InstructionMarkovVideoG"	109	1	0	0	0.38371	0.79621	"e"	"i"	0	1	1	65
"InstructionMarkovVideoG"	110	1	0	1	0.401325	0.618035	"e"	"e"	0	1	1	65
"InstructionMarkovVideoG"	111	0	0	1	0.297325	0.848065	"i"	"i"	1	1	1	65
"InstructionMarkovVideoG"	112	1	1	1	0.30049	0.51774	"i"	"e"	1	0	1	65
"InstructionMarkovVideoG"	113	1	1	0	0.385275	0.467675	"i"	"i"	0	1	1	65
"InstructionMarkovVideoG"	114	1	0	1	0.344895	0.60026	"i"	"e"	1	1	1	65
"InstructionMarkovVideoG"	115	1	1	1	0.383925	1.07166	"i"	"e"	0	1	1	65
"InstructionMarkovVideoG"	116	1	0	1	0.284035	0.40039	"i"	"i"	0	1	1	65
"InstructionMarkovVideoG"	117	0	0	1	0.300855	0.52994	"e"	"i"	0	0	1	65
"InstructionMarkovVideoG"	118	1	0	0	0.48392	0.350835	"e"	"e"	1	1	1	65
"InstructionMarkovVideoG"	119	1	1	1	0.381585	0.383925	"e"	"e"	1	1	1	65
"InstructionMarkovVideoG"	120	1	1	1	0.333995	0.325805	"e"	"e"	1	0	1	65
"InstructionMarkovVideoG"	121	1	1	0	0.3752	1.11116	"e"	"e"	0	0	1	65
"InstructionMarkovVideoG"	122	0	0	0	0.25066	1.28294	"i"	"e"	1	0	1	65
"InstructionMarkovVideoG"	123	1	1	0	0.400335	0.672905	"i"	"i"	1	1	1	65
"InstructionMarkovVideoG"	124	1	1	1	0.28427	0.500525	"i"	"i"	1	1	1	65
"InstructionMarkovVideoG"	125	1	1	1	0.344235	0.63397	"i"	"i"	0	1	1	65
"InstructionMarkovVideoG"	126	0	0	1	0.29261	0.46719	"e"	"e"	0	1	1	65
"InstructionMarkovVideoG"	127	1	0	1	0.34251	0.554175	"e"	"i"	1	1	1	65
"InstructionMarkovVideoG"	128	1	1	1	0.27367	0.46223	"e"	"i"	0	1	1	65
"InstructionMarkovVideoG"	129	1	0	1	0.279335	0.605915	"e"	"i"	0	0	1	65
"InstructionMarkovVideoG"	130	0	0	0	0.283715	0.989445	"i"	"i"	1	1	1	65
"InstructionMarkovVideoG"	131	1	1	1	0.356475	1.150485	"i"	"e"	1	0	1	65
"InstructionMarkovVideoG"	132	1	1	0	0.451165	0.76713	"i"	"i"	1	1	1	65
"InstructionMarkovVideoG"	133	1	1	1	0.47437	0.88534	"i"	"i"	0	1	1	65
"InstructionMarkovVideoG"	134	1	0	1	0.367095	0.4437	"i"	"e"	1	1	1	65
"InstructionMarkovVideoG"	135	1	1	1	0.300495	0.3725	"i"	"e"	0	1	1	65
"InstructionMarkovVideoG"	136	1	0	1	0.367285	0.633965	"i"	"i"	0	1	1	65
"InstructionMarkovVideoG"	137	0	0	1	0.315015	0.78667	"e"	"i"	0	0	1	65
"InstructionMarkovVideoG"	138	1	0	0	0.31506	0.510765	"e"	"e"	0	0	1	65
"InstructionMarkovVideoG"	139	0	0	0	0.2845	0.45037	"i"	"e"	0	1	1	65
"InstructionMarkovVideoG"	140	1	0	1	0.320105	0.417285	"i"	"i"	0	1	1	65
"InstructionMarkovVideoG"	141	0	0	1	0.36348	1.516655	"e"	"i"	1	0	1	65
"InstructionMarkovVideoG"	142	1	1	0	0.40621	0.61704	"e"	"e"	0	1	1	65
"InstructionMarkovVideoG"	143	1	0	1	0.31989	0.43391	"e"	"i"	1	1	1	65
"InstructionMarkovVideoG"	144	1	1	1	0.333925	0.53399	"e"	"i"	1	1	1	65
"InstructionMarkovVideoG"	145	1	1	1	0.300605	0.583705	"e"	"i"	1	1	1	65
"InstructionMarkovVideoG"	146	1	1	1	0.286065	0.800645	"e"	"e"	1	0	1	65
"InstructionMarkovVideoG"	147	1	1	0	0.28411	0.583835	"e"	"e"	0	0	1	65
"InstructionMarkovVideoG"	148	1	0	0	0.30064	0.625315	"e"	"e"	1	1	1	65
"InstructionMarkovVideoG"	149	1	1	1	0.286685	0.644485	"e"	"i"	0	0	1	65
"InstructionMarkovVideoG"	150	1	0	0	0.340125	1.109495	"e"	"i"	1	1	1	65
"InstructionMarkovVideoG"	151	1	1	1	0.317275	0.56719	"e"	"i"	1	1	1	65
"InstructionMarkovVideoG"	152	1	1	1	0.32282	0.48381	"e"	"i"	1	1	1	65
"InstructionMarkovVideoG"	153	1	1	1	0.31701	0.450505	"e"	"i"	0	1	1	65
"InstructionMarkovVideoG"	154	1	0	1	0.4009	0.64341	"e"	"e"	0	1	1	65
"InstructionMarkovVideoG"	156	1	1	1	0.351355	0.44514	"i"	"i"	0	1	1	65
"InstructionMarkovVideoG"	157	1	0	1	0.333815	0.79615	"i"	"i"	1	0	1	65
"InstructionMarkovVideoG"	158	1	1	0	0.31698	0.767645	"i"	"i"	1	1	1	65
"InstructionMarkovVideoG"	159	1	1	1	0.35146	1.500305	"i"	"e"	0	1	1	65
"InstructionMarkovVideoG"	160	0	0	1	0.4834	0.82504	"e"	"e"	0	1	1	65
"InstructionMarkovVideoG"	161	1	0	1	0.28392	0.641295	"e"	"i"	0	1	1	65
"InstructionMarkovVideoG"	162	0	0	1	0.300555	0.483905	"i"	"i"	1	1	1	65
"InstructionMarkovVideoG"	164	1	1	1	0.66705	1.617075	"i"	"i"	1	1	1	65
"InstructionMarkovVideoG"	165	1	1	1	0.44834	1.58271	"i"	"i"	1	0	1	65
"InstructionMarkovVideoG"	166	1	1	0	0.301385	1.214875	"i"	"i"	0	1	1	65
"InstructionMarkovVideoG"	167	1	0	1	0.31983	0.48311	"i"	"e"	0	1	1	65
"InstructionMarkovVideoG"	168	0	0	1	0.28376	0.633835	"e"	"e"	1	1	1	65
"InstructionMarkovVideoG"	169	1	1	1	0.351475	0.61701	"e"	"e"	1	1	1	65
"InstructionMarkovVideoG"	170	1	1	1	0.3009	0.37851	"e"	"e"	0	1	1	65
"InstructionMarkovVideoG"	171	1	0	1	0.38461	0.767465	"e"	"e"	0	0	1	65
"InstructionMarkovVideoG"	172	0	0	0	0.28398	1.18795	"i"	"e"	0	0	1	65
"InstructionMarkovVideoG"	173	1	0	0	0.31517	0.50078	"i"	"i"	1	0	1	65
"InstructionMarkovVideoG"	174	1	1	0	0.36068	0.75038	"i"	"i"	1	1	1	65
"InstructionMarkovVideoG"	175	1	1	1	0.324975	1.843775	"i"	"e"	1	1	1	65
"InstructionMarkovVideoG"	176	1	1	1	0.384115	1.46708	"i"	"i"	0	1	1	65
"InstructionMarkovVideoG"	177	0	0	1	0.263715	1.133815	"e"	"e"	0	0	1	65
"InstructionMarkovVideoG"	178	1	0	0	0.276595	0.583725	"e"	"e"	1	1	1	65
"InstructionMarkovVideoG"	179	1	1	1	0.350625	0.433245	"e"	"e"	1	1	1	65
"InstructionMarkovVideoG"	180	1	1	1	0.28368	0.650395	"e"	"e"	1	1	1	65
"InstructionMarkovVideoG"	181	1	1	1	0.257235	0.48494	"e"	"e"	1	1	1	65
"InstructionMarkovVideoG"	182	1	1	1	0.238785	0.36755	"e"	"e"	1	1	1	65
"InstructionMarkovVideoG"	183	1	1	1	0.28388	0.466405	"e"	"e"	1	1	1	65
"InstructionMarkovVideoG"	184	1	1	1	0.31544	0.519955	"e"	"i"	1	0	1	65
"InstructionMarkovVideoG"	185	1	1	0	0.30037	0.59148	"e"	"e"	0	1	1	65
"InstructionMarkovVideoG"	186	1	0	1	0.31692	0.46723	"e"	"e"	0	1	1	65
"InstructionMarkovVideoG"	187	0	0	1	0.30112	1.049515	"i"	"i"	0	1	1	65
"InstructionMarkovVideoG"	188	1	0	1	0.300995	0.45063	"i"	"e"	0	1	1	65
"InstructionMarkovVideoG"	189	0	0	1	0.342435	0.41713	"e"	"i"	1	1	1	65
"InstructionMarkovVideoG"	191	1	1	1	1.434245	0.40057	"e"	"e"	1	1	1	65
"InstructionMarkovVideoG"	192	1	1	1	0.34147	0.81716	"e"	"e"	0	1	1	65
"InstructionMarkovVideoG"	193	0	0	1	1.133715	0.517275	"i"	"i"	0	1	1	65
"InstructionMarkovVideoG"	194	0	0	1	0.400605	0.25059	"e"	"i"	0	1	1	65
"InstructionMarkovVideoG"	195	0	0	1	0.350645	0.33388	"i"	"e"	0	1	1	65
"InstructionMarkovVideoG"	196	1	0	1	0.317645	0.52365	"i"	"i"	0	1	1	65
"InstructionMarkovVideoG"	197	0	0	1	0.29182	0.633815	"e"	"e"	1	1	1	65
"InstructionMarkovVideoG"	198	1	1	1	0.30089	0.783655	"e"	"i"	0	0	1	65
"InstructionMarkovVideoG"	199	1	0	0	0.467315	0.567105	"e"	"e"	1	1	1	65
"InstructionMarkovVideoG"	200	1	1	1	0.33407	0.38411	"e"	"e"	0	1	1	65
"InstructionMarkovVideoG"	11	1	1	0	0.668785	1.600435	"e"	"e"	0	1	1	71
"InstructionMarkovVideoG"	12	1	0	1	0.33813	1.149445	"e"	"e"	1	0	1	71
"InstructionMarkovVideoG"	13	1	1	0	0.43323	0.476145	"e"	"i"	0	1	1	71
"InstructionMarkovVideoG"	14	1	0	1	0.352075	0.809785	"e"	"e"	1	1	1	71
"InstructionMarkovVideoG"	15	1	1	1	0.69389	0.83694	"e"	"e"	0	1	1	71
"InstructionMarkovVideoG"	16	1	0	1	0.3572	1.35066	"e"	"i"	0	0	1	71
"InstructionMarkovVideoG"	17	0	0	0	0.70188	1.01679	"i"	"e"	1	1	1	71
"InstructionMarkovVideoG"	18	1	1	1	0.489845	0.61656	"i"	"e"	1	1	1	71
"InstructionMarkovVideoG"	19	1	1	1	0.325085	0.36673	"i"	"e"	1	1	1	71
"InstructionMarkovVideoG"	20	1	1	1	0.386595	0.360455	"i"	"e"	0	1	1	71
"InstructionMarkovVideoG"	21	1	0	1	0.3505	1.011385	"i"	"e"	1	0	1	71
"InstructionMarkovVideoG"	22	1	1	0	0.350305	0.817025	"i"	"e"	0	0	1	71
"InstructionMarkovVideoG"	23	1	0	0	0.315625	0.756375	"i"	"e"	1	1	1	71
"InstructionMarkovVideoG"	24	1	1	1	0.57814	1.516395	"i"	"i"	0	0	1	71
"InstructionMarkovVideoG"	25	1	0	0	0.37474	0.589835	"i"	"e"	1	0	1	71
"InstructionMarkovVideoG"	26	1	1	0	0.283765	1.149175	"i"	"i"	0	1	1	71
"InstructionMarkovVideoG"	27	1	0	1	0.595015	0.633695	"i"	"i"	0	1	1	71
"InstructionMarkovVideoG"	28	1	0	1	0.349725	0.392845	"i"	"e"	0	1	1	71
"InstructionMarkovVideoG"	29	1	0	1	1.642985	0.783275	"i"	"i"	0	1	1	71
"InstructionMarkovVideoG"	30	0	0	1	0.33993	0.95852	"e"	"i"	0	0	1	71
"InstructionMarkovVideoG"	31	1	0	0	0.499545	0.939815	"e"	"e"	0	1	1	71
"InstructionMarkovVideoG"	32	1	0	1	1.110425	0.882425	"e"	"i"	1	0	1	71
"InstructionMarkovVideoG"	33	1	1	0	0.334265	0.70052	"e"	"e"	1	1	1	71
"InstructionMarkovVideoG"	34	1	1	1	0.43296	1.065165	"e"	"i"	1	1	1	71
"InstructionMarkovVideoG"	35	1	1	1	0.323245	0.76693	"e"	"i"	1	0	1	71
"InstructionMarkovVideoG"	36	1	1	0	0.374415	0.582765	"e"	"i"	0	0	1	71
"InstructionMarkovVideoG"	37	1	0	0	0.33812	1.92171	"e"	"e"	1	1	1	71
"InstructionMarkovVideoG"	38	1	1	1	0.687315	0.825915	"e"	"e"	0	1	1	71
"InstructionMarkovVideoG"	39	1	0	1	0.464235	0.854875	"e"	"e"	0	1	1	71
"InstructionMarkovVideoG"	40	1	0	1	0.49041	0.489045	"e"	"i"	0	1	1	71
"InstructionMarkovVideoG"	41	1	0	1	0.4701	0.616475	"e"	"e"	1	1	1	71
"InstructionMarkovVideoG"	42	0	1	1	0.64941	1.307965	"i"	"e"	1	0	1	71
"InstructionMarkovVideoG"	43	1	1	0	0.31734	0.683785	"i"	"i"	0	1	1	71
"InstructionMarkovVideoG"	44	1	0	1	0.28148	0.649745	"i"	"e"	1	0	1	71
"InstructionMarkovVideoG"	45	1	1	0	0.316445	0.765365	"i"	"i"	0	1	1	71
"InstructionMarkovVideoG"	46	1	0	1	0.2835	0.47419	"i"	"e"	0	1	1	71
"InstructionMarkovVideoG"	47	1	0	1	0.156115	0.598685	"i"	"i"	1	1	1	71
"InstructionMarkovVideoG"	48	1	1	1	0.388235	0.484695	"i"	"i"	1	0	1	71
"InstructionMarkovVideoG"	49	1	1	0	0.33348	1.233145	"i"	"i"	0	1	1	71
"InstructionMarkovVideoG"	50	1	0	1	0.297265	0.499455	"i"	"e"	1	1	1	71
"InstructionMarkovVideoG"	51	1	1	1	0.275825	1.44894	"i"	"i"	0	0	1	71
"InstructionMarkovVideoG"	52	1	0	0	1.216575	1.98172	"i"	"i"	0	1	1	71
"InstructionMarkovVideoG"	53	1	0	1	0.300285	0.476055	"i"	"e"	1	1	1	71
"InstructionMarkovVideoG"	54	1	1	1	0.300535	0.42564	"i"	"e"	1	1	1	71
"InstructionMarkovVideoG"	55	1	1	1	0.283425	0.396315	"i"	"e"	0	1	1	71
"InstructionMarkovVideoG"	56	1	0	1	0.274965	0.400115	"i"	"e"	1	1	1	71
"InstructionMarkovVideoG"	57	1	1	1	0.35556	0.350915	"i"	"e"	0	1	1	71
"InstructionMarkovVideoG"	58	1	0	1	0.516425	0.38429	"i"	"e"	0	0	1	71
"InstructionMarkovVideoG"	59	1	0	0	0.45024	0.54887	"i"	"e"	1	1	1	71
"InstructionMarkovVideoG"	60	1	1	1	0.31732	0.484265	"i"	"e"	1	1	1	71
"InstructionMarkovVideoG"	61	1	1	1	0.297105	0.45447	"i"	"e"	0	1	1	71
"InstructionMarkovVideoG"	62	1	0	1	0.413325	0.374675	"i"	"e"	0	1	1	71
"InstructionMarkovVideoG"	63	1	0	1	0.114985	0.44982	"i"	"e"	1	1	1	71
"InstructionMarkovVideoG"	64	1	1	1	0.30581	0.533925	"i"	"e"	0	1	1	71
"InstructionMarkovVideoG"	65	0	0	1	0.5915	0.938245	"e"	"e"	1	1	1	71
"InstructionMarkovVideoG"	66	1	1	1	0.30835	1.308615	"e"	"i"	0	0	1	71
"InstructionMarkovVideoG"	67	1	0	0	0.2386	0.568755	"e"	"e"	1	1	1	71
"InstructionMarkovVideoG"	68	1	1	1	0.384215	0.75278	"e"	"e"	0	1	1	71
"InstructionMarkovVideoG"	69	1	0	1	0.117175	1.465915	"e"	"i"	1	0	1	71
"InstructionMarkovVideoG"	70	1	1	0	0.39098	0.653085	"e"	"i"	0	0	1	71
"InstructionMarkovVideoG"	71	1	0	0	0.82398	0.639135	"e"	"e"	0	1	1	71
"InstructionMarkovVideoG"	73	1	1	1	0.33388	0.977685	"e"	"e"	0	1	1	71
"InstructionMarkovVideoG"	74	1	0	1	0.40139	1.469725	"e"	"e"	1	1	1	71
"InstructionMarkovVideoG"	75	1	1	1	0.3517	0.54704	"e"	"e"	0	1	1	71
"InstructionMarkovVideoG"	76	1	0	1	1.859545	0.92517	"e"	"i"	0	0	1	71
"InstructionMarkovVideoG"	77	1	0	0	0.25904	0.84988	"e"	"i"	0	0	1	71
"InstructionMarkovVideoG"	78	1	0	0	0.29431	0.494255	"e"	"e"	0	0	1	71
"InstructionMarkovVideoG"	79	1	0	0	0.122505	0.51689	"e"	"e"	0	0	1	71
"InstructionMarkovVideoG"	80	1	0	0	0.3005	0.704615	"e"	"e"	1	1	1	71
"InstructionMarkovVideoG"	81	1	1	1	0.31487	0.68547	"e"	"e"	1	0	1	71
"InstructionMarkovVideoG"	82	1	1	0	0.274245	1.015315	"e"	"e"	1	1	1	71
"InstructionMarkovVideoG"	83	1	1	1	0.28604	0.695385	"e"	"e"	0	1	1	71
"InstructionMarkovVideoG"	84	1	0	1	0.32685	0.97331	"e"	"i"	1	0	1	71
"InstructionMarkovVideoG"	85	1	1	0	0.292075	0.62413	"e"	"e"	1	1	1	71
"InstructionMarkovVideoG"	86	1	1	1	0.300205	0.534775	"e"	"e"	1	1	1	71
"InstructionMarkovVideoG"	87	1	1	1	0.28383	0.783485	"e"	"e"	1	1	1	71
"InstructionMarkovVideoG"	88	1	1	1	0.270425	0.491535	"e"	"e"	1	1	1	71
"InstructionMarkovVideoG"	89	1	1	1	0.290745	0.460435	"e"	"e"	1	1	1	71
"InstructionMarkovVideoG"	90	1	1	1	0.3166	0.59974	"e"	"e"	1	1	1	71
"InstructionMarkovVideoG"	91	1	1	1	0.333325	0.73346	"e"	"i"	0	0	1	71
"InstructionMarkovVideoG"	92	1	0	0	0.345305	0.51748	"e"	"e"	0	1	1	71
"InstructionMarkovVideoG"	93	1	0	1	0.30039	0.53471	"e"	"e"	1	1	1	71
"InstructionMarkovVideoG"	94	1	1	1	0.29939	0.417955	"e"	"e"	1	1	1	71
"InstructionMarkovVideoG"	95	1	1	1	0.253265	0.37213	"e"	"e"	0	0	1	71
"InstructionMarkovVideoG"	96	1	0	0	0.416575	0.649555	"e"	"i"	0	0	1	71
"InstructionMarkovVideoG"	97	1	0	0	0.050255	0.52167	"e"	"e"	0	1	1	71
"InstructionMarkovVideoG"	98	1	0	1	0.373875	0.45174	"e"	"e"	0	1	1	71
"InstructionMarkovVideoG"	99	0	0	1	0.40075	1.09069	"i"	"i"	1	1	1	71
"InstructionMarkovVideoG"	100	1	1	1	0.394755	0.57476	"i"	"i"	0	1	1	71
"InstructionMarkovVideoG"	101	1	0	1	0.36732	0.916195	"i"	"e"	0	0	1	71
"InstructionMarkovVideoG"	102	1	0	0	0.29382	0.88858	"i"	"i"	0	1	1	71
"InstructionMarkovVideoG"	103	1	0	1	0.3344	1.41619	"i"	"i"	1	0	1	71
"InstructionMarkovVideoG"	104	1	1	0	0.391065	0.8511	"i"	"i"	1	1	1	71
"InstructionMarkovVideoG"	105	1	1	1	0.326935	0.568615	"i"	"i"	0	1	1	71
"InstructionMarkovVideoG"	106	1	0	1	0.32767	0.55884	"i"	"i"	1	1	1	71
"InstructionMarkovVideoG"	107	1	1	1	0.335795	1.03276	"i"	"i"	1	1	1	71
"InstructionMarkovVideoG"	108	1	1	1	0.56808	0.630515	"i"	"i"	1	1	1	71
"InstructionMarkovVideoG"	109	1	1	1	0.432645	0.683335	"i"	"i"	1	1	1	71
"InstructionMarkovVideoG"	110	1	1	1	0.32459	0.78074	"i"	"i"	1	1	1	71
"InstructionMarkovVideoG"	111	1	1	1	0.4658	0.922575	"i"	"e"	0	0	1	71
"InstructionMarkovVideoG"	112	1	0	0	0.351435	0.61771	"i"	"i"	0	1	1	71
"InstructionMarkovVideoG"	113	1	0	1	0.60279	0.97953	"i"	"e"	1	0	1	71
"InstructionMarkovVideoG"	114	1	1	0	0.323045	0.623025	"i"	"i"	0	1	1	71
"InstructionMarkovVideoG"	115	0	0	1	0.537615	1.32357	"e"	"e"	1	1	1	71
"InstructionMarkovVideoG"	116	1	1	1	0.223375	0.904025	"e"	"i"	1	0	1	71
"InstructionMarkovVideoG"	117	1	1	0	0.317005	0.513845	"e"	"e"	1	1	1	71
"InstructionMarkovVideoG"	118	1	1	1	0.307005	0.62305	"e"	"i"	1	0	1	71
"InstructionMarkovVideoG"	119	1	1	0	0.351345	0.82398	"e"	"i"	0	0	1	71
"InstructionMarkovVideoG"	120	1	0	0	0.30062	0.514155	"e"	"e"	0	1	1	71
"InstructionMarkovVideoG"	121	1	0	1	0.520235	1.030785	"e"	"i"	0	1	1	71
"InstructionMarkovVideoG"	122	1	0	1	0.957165	0.973715	"e"	"e"	1	1	1	71
"InstructionMarkovVideoG"	123	1	1	1	0.28588	0.59753	"e"	"e"	0	1	1	71
"InstructionMarkovVideoG"	124	1	0	1	0.292495	0.464565	"e"	"e"	1	1	1	71
"InstructionMarkovVideoG"	125	1	1	1	0.33315	0.57281	"e"	"e"	0	1	1	71
"InstructionMarkovVideoG"	126	1	0	1	0.30475	0.498555	"e"	"e"	1	1	1	71
"InstructionMarkovVideoG"	127	1	1	1	0.318905	1.112905	"e"	"i"	0	0	1	71
"InstructionMarkovVideoG"	128	0	0	0	0.339685	0.87132	"i"	"i"	0	1	1	71
"InstructionMarkovVideoG"	129	1	0	1	0.338985	0.52253	"i"	"e"	0	1	1	71
"InstructionMarkovVideoG"	130	1	0	1	0.352835	0.59761	"i"	"i"	0	1	1	71
"InstructionMarkovVideoG"	131	1	0	1	0.2753	0.564625	"i"	"i"	0	1	1	71
"InstructionMarkovVideoG"	132	1	0	1	0.37715	0.466305	"i"	"e"	0	1	1	71
"InstructionMarkovVideoG"	133	1	0	1	0.116765	0.329915	"i"	"e"	0	1	1	71
"InstructionMarkovVideoG"	134	0	0	1	0.30637	0.49652	"e"	"i"	1	1	1	71
"InstructionMarkovVideoG"	135	1	1	1	0.41026	0.51523	"e"	"i"	1	1	1	71
"InstructionMarkovVideoG"	136	1	1	1	0.28967	0.4799	"e"	"i"	1	1	1	71
"InstructionMarkovVideoG"	137	1	1	1	0.32687	0.772195	"e"	"i"	0	1	1	71
"InstructionMarkovVideoG"	138	1	0	1	0.411335	1.724735	"e"	"e"	0	1	1	71
"InstructionMarkovVideoG"	139	1	0	1	0.33827	0.58213	"e"	"i"	1	1	1	71
"InstructionMarkovVideoG"	140	1	1	1	0.51883	0.55809	"e"	"i"	0	1	1	71
"InstructionMarkovVideoG"	141	1	0	1	0.888885	0.441845	"e"	"i"	0	0	1	71
"InstructionMarkovVideoG"	142	1	0	0	0.283385	0.647015	"e"	"i"	1	1	1	71
"InstructionMarkovVideoG"	143	1	1	1	0.302545	0.581265	"e"	"i"	1	1	1	71
"InstructionMarkovVideoG"	145	1	1	0	0.334135	0.598025	"e"	"i"	1	1	1	71
"InstructionMarkovVideoG"	146	1	1	1	0.301335	0.531315	"e"	"i"	1	1	1	71
"InstructionMarkovVideoG"	147	1	1	1	0.302445	0.487745	"e"	"i"	0	1	1	71
"InstructionMarkovVideoG"	148	1	0	1	0.270935	0.43089	"e"	"i"	0	1	1	71
"InstructionMarkovVideoG"	149	0	0	1	0.330675	0.397375	"i"	"e"	0	1	1	71
"InstructionMarkovVideoG"	150	1	0	1	0.32921	0.43846	"i"	"i"	0	0	1	71
"InstructionMarkovVideoG"	151	1	0	0	0.390155	1.21388	"i"	"i"	0	1	1	71
"InstructionMarkovVideoG"	152	1	0	1	0.418375	0.836365	"i"	"e"	1	0	1	71
"InstructionMarkovVideoG"	153	1	1	0	0.31689	0.357535	"i"	"e"	0	1	1	71
"InstructionMarkovVideoG"	154	1	0	1	0.317545	0.854945	"i"	"i"	0	1	1	71
"InstructionMarkovVideoG"	155	1	0	1	0.03734	0.60759	"i"	"i"	1	1	1	71
"InstructionMarkovVideoG"	156	1	1	1	0.29571	0.464535	"i"	"i"	1	1	1	71
"InstructionMarkovVideoG"	157	1	1	1	0.29508	0.45178	"i"	"i"	0	1	1	71
"InstructionMarkovVideoG"	158	1	0	1	0.334345	0.434825	"i"	"i"	1	1	1	71
"InstructionMarkovVideoG"	159	1	1	1	0.334765	0.41467	"i"	"i"	0	1	1	71
"InstructionMarkovVideoG"	160	1	0	1	0.318565	0.417775	"i"	"i"	1	0	1	71
"InstructionMarkovVideoG"	161	1	1	0	0.469275	0.72917	"i"	"i"	1	1	1	71
"InstructionMarkovVideoG"	162	1	1	1	0.535155	0.58068	"i"	"i"	0	1	1	71
"InstructionMarkovVideoG"	163	1	0	1	0.15828	0.62626	"i"	"i"	0	1	1	71
"InstructionMarkovVideoG"	164	0	0	1	0.29115	1.525785	"e"	"i"	1	0	1	71
"InstructionMarkovVideoG"	165	1	1	0	0.334955	1.01374	"e"	"e"	0	1	1	71
"InstructionMarkovVideoG"	166	1	0	1	0.25284	1.01397	"e"	"i"	1	0	1	71
"InstructionMarkovVideoG"	167	1	1	0	0.071045	1.20492	"e"	"i"	1	1	1	71
"InstructionMarkovVideoG"	168	1	1	1	0.000515	0.658965	"e"	"i"	1	1	1	71
"InstructionMarkovVideoG"	169	1	1	1	0.302915	0.62184	"e"	"i"	0	1	1	71
"InstructionMarkovVideoG"	170	1	0	1	0.110965	0.5731	"e"	"i"	1	1	1	71
"InstructionMarkovVideoG"	171	1	1	1	0.32256	0.46762	"e"	"i"	0	0	1	71
"InstructionMarkovVideoG"	172	1	0	0	0.73314	0.66335	"e"	"i"	0	0	1	71
"InstructionMarkovVideoG"	173	1	0	0	0.499875	0.684635	"e"	"i"	1	0	1	71
"InstructionMarkovVideoG"	174	1	1	0	0.32322	0.38466	"e"	"i"	0	0	1	71
"InstructionMarkovVideoG"	175	1	0	0	0.322795	0.64732	"e"	"i"	0	0	1	71
"InstructionMarkovVideoG"	176	1	0	0	0.293785	0.84682	"e"	"i"	0	1	1	71
"InstructionMarkovVideoG"	177	1	0	1	0.06675	0.42975	"e"	"e"	1	0	1	71
"InstructionMarkovVideoG"	178	1	1	0	0.213345	0.814715	"e"	"e"	0	1	1	71
"InstructionMarkovVideoG"	179	1	0	1	0.940685	0.483195	"e"	"e"	1	0	1	71
"InstructionMarkovVideoG"	180	1	1	0	0.35058	0.61499	"e"	"e"	1	0	1	71
"InstructionMarkovVideoG"	181	1	1	0	0.30235	1.15086	"e"	"i"	1	1	1	71
"InstructionMarkovVideoG"	182	1	1	1	0.283185	0.56451	"e"	"e"	0	0	1	71
"InstructionMarkovVideoG"	183	1	0	0	0.169015	0.652655	"e"	"i"	1	1	1	71
