"ExpName"	"Trial"	"Stay"	"PrReward"	"PrTransition"	"RT1"	"RT2"	"Choice1"	"Choice2"	"reward"	"transition"	"Time"	"subjID"
"MarkovTaskGamblingJ2"	11	1	1	0	0.538565	0.83709	"i"	"e"	0	1	2	34
"MarkovTaskGamblingJ2"	12	1	0	1	1.291235	1.13183	"i"	"i"	0	1	2	34
"MarkovTaskGamblingJ2"	14	1	1	1	0.339585	0.8219	"e"	"e"	1	1	2	34
"MarkovTaskGamblingJ2"	15	1	1	1	0.5527	0.75254	"e"	"i"	1	1	2	34
"MarkovTaskGamblingJ2"	16	1	1	1	0.34209	1.1659	"e"	"i"	0	0	2	34
"MarkovTaskGamblingJ2"	17	1	0	0	0.469735	1.65939	"e"	"i"	1	1	2	34
"MarkovTaskGamblingJ2"	18	1	1	1	0.28625	0.73489	"e"	"e"	0	1	2	34
"MarkovTaskGamblingJ2"	19	1	0	1	0.77029	0.394285	"e"	"i"	0	1	2	34
"MarkovTaskGamblingJ2"	20	1	0	1	1.159305	1.434865	"e"	"i"	0	0	2	34
"MarkovTaskGamblingJ2"	21	0	0	0	0.48626	1.28878	"i"	"i"	0	0	2	34
"MarkovTaskGamblingJ2"	22	1	0	0	0.37004	0.309935	"i"	"e"	0	0	2	34
"MarkovTaskGamblingJ2"	23	0	0	0	0.821645	0.736135	"e"	"i"	1	1	2	34
"MarkovTaskGamblingJ2"	24	0	1	1	1.676495	1.624455	"i"	"i"	0	1	2	34
"MarkovTaskGamblingJ2"	25	1	0	1	0.48349	1.15426	"i"	"e"	1	1	2	34
"MarkovTaskGamblingJ2"	26	1	1	1	1.559595	0.63406	"i"	"e"	0	1	2	34
"MarkovTaskGamblingJ2"	27	0	0	1	0.67523	0.36256	"e"	"i"	1	1	2	34
"MarkovTaskGamblingJ2"	28	1	1	1	0.677535	0.630005	"e"	"e"	1	1	2	34
"MarkovTaskGamblingJ2"	29	0	1	1	0.539045	0.80264	"i"	"e"	1	1	2	34
"MarkovTaskGamblingJ2"	30	1	1	1	0.334295	1.341375	"i"	"i"	1	0	2	34
"MarkovTaskGamblingJ2"	31	0	1	0	0.444815	0.601475	"e"	"i"	0	1	2	34
"MarkovTaskGamblingJ2"	32	1	0	1	0.469935	0.444705	"e"	"e"	1	1	2	34
"MarkovTaskGamblingJ2"	33	0	1	1	0.443225	0.852835	"i"	"i"	0	0	2	34
"MarkovTaskGamblingJ2"	34	1	0	0	0.47607	0.9655	"i"	"i"	0	1	2	34
"MarkovTaskGamblingJ2"	35	0	0	1	0.838125	0.3857	"e"	"i"	0	1	2	34
"MarkovTaskGamblingJ2"	36	1	0	1	0.290355	0.3375	"e"	"e"	1	1	2	34
"MarkovTaskGamblingJ2"	37	1	1	1	0.63265	0.633625	"e"	"e"	1	1	2	34
"MarkovTaskGamblingJ2"	38	1	1	1	0.419345	0.657615	"e"	"e"	1	1	2	34
"MarkovTaskGamblingJ2"	39	1	1	1	0.35397	0.800055	"e"	"i"	1	0	2	34
"MarkovTaskGamblingJ2"	40	1	1	0	0.3312	0.737885	"e"	"e"	0	1	2	34
"MarkovTaskGamblingJ2"	41	1	0	1	0.310865	1.024375	"e"	"i"	0	0	2	34
"MarkovTaskGamblingJ2"	42	1	0	0	0.369235	1.155025	"e"	"i"	0	1	2	34
"MarkovTaskGamblingJ2"	43	1	0	1	0.23497	0.31894	"e"	"e"	1	1	2	34
"MarkovTaskGamblingJ2"	44	1	1	1	0.486185	0.918945	"e"	"e"	1	1	2	34
"MarkovTaskGamblingJ2"	46	0	0	1	0.821375	0.73611	"e"	"i"	0	1	2	34
"MarkovTaskGamblingJ2"	47	1	0	1	0.605455	1.40998	"e"	"e"	0	1	2	34
"MarkovTaskGamblingJ2"	48	1	0	1	0.70521	0.41594	"e"	"i"	1	1	2	34
"MarkovTaskGamblingJ2"	49	1	1	1	0.37152	1.409375	"e"	"i"	1	0	2	34
"MarkovTaskGamblingJ2"	50	1	1	0	1.106625	0.937895	"e"	"i"	0	1	2	34
"MarkovTaskGamblingJ2"	51	1	0	1	0.621245	1.80772	"e"	"i"	0	0	2	34
"MarkovTaskGamblingJ2"	52	1	0	0	0.625045	0.90441	"e"	"i"	0	1	2	34
"MarkovTaskGamblingJ2"	53	1	0	1	0.301345	0.368	"e"	"e"	0	0	2	34
"MarkovTaskGamblingJ2"	54	0	0	0	0.27857	0.713645	"i"	"i"	1	0	2	34
"MarkovTaskGamblingJ2"	56	1	1	1	0.654925	0.72295	"i"	"e"	1	1	2	34
"MarkovTaskGamblingJ2"	57	1	1	1	0.31471	0.55164	"i"	"e"	1	1	2	34
"MarkovTaskGamblingJ2"	58	1	1	1	0.33567	0.672575	"i"	"e"	0	1	2	34
"MarkovTaskGamblingJ2"	59	1	0	1	0.425305	0.908445	"i"	"i"	0	1	2	34
"MarkovTaskGamblingJ2"	60	1	0	1	0.426815	0.82165	"i"	"i"	0	0	2	34
"MarkovTaskGamblingJ2"	61	1	0	0	0.19204	0.76288	"i"	"e"	1	1	2	34
"MarkovTaskGamblingJ2"	62	1	1	1	0.543865	0.400545	"i"	"e"	1	1	2	34
"MarkovTaskGamblingJ2"	63	1	1	1	0.40838	0.46684	"i"	"e"	1	1	2	34
"MarkovTaskGamblingJ2"	64	1	1	1	0.508	0.95467	"i"	"i"	1	1	2	34
"MarkovTaskGamblingJ2"	65	1	1	1	0.491805	0.6719	"i"	"e"	0	1	2	34
"MarkovTaskGamblingJ2"	66	1	0	1	0.53576	0.596585	"i"	"e"	1	1	2	34
"MarkovTaskGamblingJ2"	67	1	1	1	0.402495	0.3838	"i"	"e"	0	1	2	34
"MarkovTaskGamblingJ2"	68	1	0	1	0.0121	0.33202	"i"	"i"	0	1	2	34
"MarkovTaskGamblingJ2"	69	0	0	1	0.620195	0.587395	"e"	"i"	0	1	2	34
"MarkovTaskGamblingJ2"	70	1	0	1	0.358765	0.92049	"e"	"i"	0	1	2	34
"MarkovTaskGamblingJ2"	71	1	0	1	0.420305	0.36868	"e"	"e"	0	1	2	34
"MarkovTaskGamblingJ2"	72	1	0	1	0.48811	1.3217	"e"	"e"	1	0	2	34
"MarkovTaskGamblingJ2"	73	1	1	0	0.670665	1.440175	"e"	"e"	0	1	2	34
"MarkovTaskGamblingJ2"	74	1	0	1	0.445655	0.69902	"e"	"e"	0	0	2	34
"MarkovTaskGamblingJ2"	75	0	0	0	0.035705	0.462095	"i"	"i"	1	0	2	34
"MarkovTaskGamblingJ2"	76	1	1	0	0.62485	0.687035	"i"	"e"	0	1	2	34
"MarkovTaskGamblingJ2"	77	1	0	1	0.44056	1.23834	"i"	"i"	0	1	2	34
"MarkovTaskGamblingJ2"	78	1	0	1	1.31767	1.7232	"i"	"i"	0	0	2	34
"MarkovTaskGamblingJ2"	79	1	0	0	0.618255	1.755585	"i"	"i"	1	1	2	34
"MarkovTaskGamblingJ2"	80	1	1	1	0.90867	0.86492	"i"	"i"	0	1	2	34
"MarkovTaskGamblingJ2"	81	1	0	1	0.435005	1.457735	"i"	"i"	1	0	2	34
"MarkovTaskGamblingJ2"	82	1	1	0	0.6884	1.20561	"i"	"i"	1	0	2	34
"MarkovTaskGamblingJ2"	83	1	1	0	0.419715	0.83743	"i"	"e"	0	1	2	34
"MarkovTaskGamblingJ2"	85	1	0	0	0.235335	0.58419	"e"	"i"	1	1	2	34
"MarkovTaskGamblingJ2"	86	1	1	1	0.319915	0.47923	"e"	"e"	0	0	2	34
"MarkovTaskGamblingJ2"	87	1	0	0	0.557955	0.65209	"e"	"i"	1	0	2	34
"MarkovTaskGamblingJ2"	88	1	1	0	0.781085	1.38429	"e"	"i"	0	1	2	34
"MarkovTaskGamblingJ2"	89	1	0	1	0.35384	0.854355	"e"	"i"	1	0	2	34
"MarkovTaskGamblingJ2"	90	1	1	0	0.31978	1.305655	"e"	"e"	1	1	2	34
"MarkovTaskGamblingJ2"	91	1	1	1	0.556155	0.786045	"e"	"e"	1	1	2	34
"MarkovTaskGamblingJ2"	92	1	1	1	0.339265	0.71481	"e"	"i"	0	0	2	34
"MarkovTaskGamblingJ2"	93	1	0	0	0.492805	0.869415	"e"	"e"	1	1	2	34
"MarkovTaskGamblingJ2"	95	1	1	1	0.520075	1.254275	"e"	"e"	1	1	2	34
"MarkovTaskGamblingJ2"	97	0	0	0	1.10132	1.45089	"i"	"i"	1	0	2	34
"MarkovTaskGamblingJ2"	99	1	0	1	0.57034	0.44491	"i"	"i"	0	1	2	34
"MarkovTaskGamblingJ2"	100	1	0	1	0.32476	0.93716	"i"	"e"	1	0	2	34
"MarkovTaskGamblingJ2"	102	1	0	0	0.520125	0.43379	"e"	"e"	1	0	2	34
"MarkovTaskGamblingJ2"	103	1	1	0	0.370285	0.90392	"e"	"e"	0	0	2	34
"MarkovTaskGamblingJ2"	104	1	0	0	0.37935	0.387935	"e"	"e"	1	1	2	34
"MarkovTaskGamblingJ2"	105	1	1	1	1.7522	0.871645	"e"	"i"	0	0	2	34
"MarkovTaskGamblingJ2"	106	1	0	0	0.217465	0.42004	"e"	"e"	1	0	2	34
"MarkovTaskGamblingJ2"	107	1	1	0	0.42557	0.821065	"e"	"i"	1	1	2	34
"MarkovTaskGamblingJ2"	108	1	1	1	0.49675	0.62945	"e"	"e"	0	0	2	34
"MarkovTaskGamblingJ2"	109	1	0	0	0.65576	0.518445	"e"	"i"	0	1	2	34
"MarkovTaskGamblingJ2"	110	1	0	1	0.553605	0.88614	"e"	"e"	1	1	2	34
"MarkovTaskGamblingJ2"	111	1	1	1	0.334215	0.903705	"e"	"e"	1	1	2	34
"MarkovTaskGamblingJ2"	112	1	1	1	0.335665	1.946355	"e"	"e"	1	1	2	34
"MarkovTaskGamblingJ2"	113	1	1	1	0.31933	1.32247	"e"	"e"	1	1	2	34
"MarkovTaskGamblingJ2"	114	1	1	1	0.362095	1.203595	"e"	"i"	0	0	2	34
"MarkovTaskGamblingJ2"	115	1	0	0	0.52018	1.455735	"e"	"e"	0	0	2	34
"MarkovTaskGamblingJ2"	116	1	0	0	0.569325	0.935065	"e"	"e"	0	1	2	34
"MarkovTaskGamblingJ2"	117	1	0	1	0.8888	1.27346	"e"	"i"	1	1	2	34
"MarkovTaskGamblingJ2"	118	1	1	1	1.596925	0.919765	"e"	"i"	1	1	2	34
"MarkovTaskGamblingJ2"	119	1	1	1	0.849305	1.02022	"e"	"i"	1	1	2	34
"MarkovTaskGamblingJ2"	120	1	1	1	0.453355	1.710565	"e"	"e"	0	0	2	34
"MarkovTaskGamblingJ2"	121	0	0	0	0.37442	1.150015	"i"	"i"	1	1	2	34
"MarkovTaskGamblingJ2"	122	1	1	1	0.584845	0.868885	"i"	"i"	1	0	2	34
"MarkovTaskGamblingJ2"	123	1	1	0	0.637345	0.95882	"i"	"e"	0	1	2	34
"MarkovTaskGamblingJ2"	124	1	0	1	0.55512	0.352925	"i"	"i"	1	0	2	34
"MarkovTaskGamblingJ2"	125	1	1	0	0.398305	0.402015	"i"	"i"	0	0	2	34
"MarkovTaskGamblingJ2"	126	1	0	0	0.342775	0.45576	"i"	"i"	1	0	2	34
"MarkovTaskGamblingJ2"	127	1	1	0	0.337025	1.10513	"i"	"i"	1	1	2	34
"MarkovTaskGamblingJ2"	128	1	1	1	0.470335	0.97193	"i"	"i"	1	1	2	34
"MarkovTaskGamblingJ2"	129	1	1	1	0.413525	0.854795	"i"	"i"	0	1	2	34
"MarkovTaskGamblingJ2"	130	0	0	1	0.301795	0.786325	"e"	"i"	1	1	2	34
"MarkovTaskGamblingJ2"	131	1	1	1	0.331395	0.73955	"e"	"i"	0	1	2	34
"MarkovTaskGamblingJ2"	132	1	0	1	0.08472	1.251095	"e"	"i"	0	0	2	34
"MarkovTaskGamblingJ2"	133	1	0	0	0.536555	1.38951	"e"	"i"	0	1	2	34
"MarkovTaskGamblingJ2"	134	1	0	1	0.48828	0.44526	"e"	"e"	1	1	2	34
"MarkovTaskGamblingJ2"	136	1	1	1	0.50388	0.367245	"e"	"e"	1	1	2	34
"MarkovTaskGamblingJ2"	137	1	1	1	0.33853	1.05408	"e"	"i"	0	0	2	34
"MarkovTaskGamblingJ2"	138	1	0	0	0.473325	0.901575	"e"	"e"	0	1	2	34
"MarkovTaskGamblingJ2"	139	1	0	1	0.36854	0.32776	"e"	"i"	0	0	2	34
"MarkovTaskGamblingJ2"	140	1	0	0	0.20397	0.9035	"e"	"e"	0	0	2	34
"MarkovTaskGamblingJ2"	141	1	0	0	0.46963	1.200165	"e"	"i"	1	1	2	34
"MarkovTaskGamblingJ2"	142	1	1	1	0.319685	0.94062	"e"	"e"	0	0	2	34
"MarkovTaskGamblingJ2"	143	0	0	0	0.385235	1.326945	"i"	"i"	1	1	2	34
"MarkovTaskGamblingJ2"	144	1	1	1	0.820175	1.84337	"i"	"e"	0	1	2	34
"MarkovTaskGamblingJ2"	145	1	0	1	0.40284	0.836485	"i"	"i"	1	1	2	34
"MarkovTaskGamblingJ2"	146	1	1	1	0.815505	1.623315	"i"	"i"	0	1	2	34
"MarkovTaskGamblingJ2"	147	1	0	1	0.52115	0.56691	"i"	"e"	0	1	2	34
"MarkovTaskGamblingJ2"	148	1	0	1	0.425155	0.931715	"i"	"i"	0	1	2	34
"MarkovTaskGamblingJ2"	149	1	0	1	0.305665	0.770045	"i"	"i"	1	0	2	34
"MarkovTaskGamblingJ2"	151	1	0	1	0.436395	0.378785	"i"	"i"	0	1	2	34
"MarkovTaskGamblingJ2"	152	0	0	1	0.268315	0.638025	"e"	"i"	1	1	2	34
"MarkovTaskGamblingJ2"	153	1	1	1	0.341865	0.52058	"e"	"i"	1	1	2	34
"MarkovTaskGamblingJ2"	154	1	1	1	0.29768	0.32104	"e"	"i"	0	1	2	34
"MarkovTaskGamblingJ2"	155	0	0	1	0.403665	1.37219	"i"	"e"	1	1	2	34
"MarkovTaskGamblingJ2"	156	1	1	1	0.3588	0.57985	"i"	"e"	1	1	2	34
"MarkovTaskGamblingJ2"	157	1	1	1	0.321015	0.401335	"i"	"e"	0	0	2	34
"MarkovTaskGamblingJ2"	158	0	0	0	0.23943	0.386855	"e"	"i"	0	1	2	34
"MarkovTaskGamblingJ2"	159	1	0	1	0.41895	0.402545	"e"	"e"	1	1	2	34
"MarkovTaskGamblingJ2"	160	1	1	1	0.35413	0.669605	"e"	"e"	1	1	2	34
"MarkovTaskGamblingJ2"	161	1	1	1	0.445275	1.402325	"e"	"e"	1	0	2	34
"MarkovTaskGamblingJ2"	162	1	1	0	0.49603	0.83641	"e"	"e"	1	1	2	34
"MarkovTaskGamblingJ2"	163	1	1	1	0.37051	0.816085	"e"	"e"	0	0	2	34
"MarkovTaskGamblingJ2"	164	1	0	0	0.368975	0.652145	"e"	"e"	1	1	2	34
"MarkovTaskGamblingJ2"	165	1	1	1	0.3222	0.785805	"e"	"e"	1	1	2	34
"MarkovTaskGamblingJ2"	166	1	1	1	0.31817	0.64029	"e"	"e"	1	1	2	34
"MarkovTaskGamblingJ2"	167	1	1	1	0.268825	0.66177	"e"	"e"	1	1	2	34
"MarkovTaskGamblingJ2"	168	1	1	1	0.26894	0.471005	"e"	"i"	0	0	2	34
"MarkovTaskGamblingJ2"	169	1	0	0	0.36867	0.535295	"e"	"e"	0	0	2	34
"MarkovTaskGamblingJ2"	170	1	0	0	0.47024	0.56704	"e"	"e"	1	1	2	34
"MarkovTaskGamblingJ2"	171	1	1	1	0.30099	0.64605	"e"	"e"	0	1	2	34
"MarkovTaskGamblingJ2"	172	1	0	1	0.230725	1.290025	"e"	"i"	1	0	2	34
"MarkovTaskGamblingJ2"	173	1	1	0	0.43688	0.68318	"e"	"e"	1	1	2	34
"MarkovTaskGamblingJ2"	174	1	1	1	0.563275	0.83846	"e"	"i"	1	0	2	34
"MarkovTaskGamblingJ2"	175	1	1	0	0.352935	0.854655	"e"	"i"	0	0	2	34
"MarkovTaskGamblingJ2"	176	1	0	0	0.20128	0.836715	"e"	"e"	0	1	2	34
"MarkovTaskGamblingJ2"	177	1	0	1	0.553595	0.392005	"e"	"e"	1	1	2	34
"MarkovTaskGamblingJ2"	178	1	1	1	0.402695	0.87031	"e"	"i"	0	0	2	34
"MarkovTaskGamblingJ2"	179	1	0	0	0.33994	0.60322	"e"	"e"	1	1	2	34
"MarkovTaskGamblingJ2"	180	1	1	1	0.320115	0.98608	"e"	"e"	1	1	2	34
"MarkovTaskGamblingJ2"	181	1	1	1	0.64897	1.8694	"e"	"e"	1	1	2	34
"MarkovTaskGamblingJ2"	182	1	1	1	0.452	1.455635	"e"	"e"	1	0	2	34
"MarkovTaskGamblingJ2"	183	1	1	0	0.372785	0.81436	"e"	"e"	1	1	2	34
"MarkovTaskGamblingJ2"	184	1	1	1	0.38597	0.803325	"e"	"e"	1	1	2	34
"MarkovTaskGamblingJ2"	185	1	1	1	0.33423	0.83647	"e"	"e"	1	1	2	34
"MarkovTaskGamblingJ2"	186	1	1	1	0.286515	0.437685	"e"	"e"	0	1	2	34
"MarkovTaskGamblingJ2"	187	1	0	1	0.83043	1.32259	"e"	"e"	0	0	2	34
"MarkovTaskGamblingJ2"	188	1	0	0	0.348845	0.74678	"e"	"e"	1	1	2	34
"MarkovTaskGamblingJ2"	189	1	1	1	0.347175	1.952575	"e"	"e"	0	0	2	34
"MarkovTaskGamblingJ2"	190	1	0	0	0.26821	0.836345	"e"	"e"	1	1	2	34
"MarkovTaskGamblingJ2"	191	1	1	1	0.36014	0.970175	"e"	"i"	0	0	2	34
"MarkovTaskGamblingJ2"	192	1	0	0	0.31203	0.512905	"e"	"e"	1	1	2	34
"MarkovTaskGamblingJ2"	193	1	1	1	0.351205	0.92025	"e"	"e"	1	0	2	34
"MarkovTaskGamblingJ2"	194	1	1	0	0.403625	1.056085	"e"	"e"	0	1	2	34
"MarkovTaskGamblingJ2"	195	1	0	1	0.386615	0.484305	"e"	"e"	0	0	2	34
"MarkovTaskGamblingJ2"	196	1	0	0	0.439795	0.47894	"e"	"e"	0	1	2	34
"MarkovTaskGamblingJ2"	197	0	0	1	0.36986	0.764	"i"	"i"	1	0	2	34
"MarkovTaskGamblingJ2"	198	1	1	0	0.400105	1.266385	"i"	"i"	1	1	2	34
"MarkovTaskGamblingJ2"	199	1	1	1	0.44046	0.66749	"i"	"i"	1	1	2	34
"MarkovTaskGamblingJ2"	200	1	1	1	0.335355	0.417955	"i"	"i"	0	1	2	34
"MarkovTaskGamblingJ2"	11	1	1	0	0.284945	0.2098	"i"	"e"	0	1	2	41
"MarkovTaskGamblingJ2"	12	1	0	1	0.201	0.75909	"i"	"i"	0	0	2	41
"MarkovTaskGamblingJ2"	13	1	0	0	0.35101	0.342625	"i"	"e"	0	0	2	41
"MarkovTaskGamblingJ2"	14	0	0	0	0.257415	0.12724	"e"	"e"	1	0	2	41
"MarkovTaskGamblingJ2"	15	1	1	0	0.112355	0.31894	"e"	"i"	0	1	2	41
"MarkovTaskGamblingJ2"	16	1	0	1	0.270735	0.317365	"e"	"i"	1	1	2	41
"MarkovTaskGamblingJ2"	17	1	1	1	0.276775	0.33583	"e"	"i"	1	1	2	41
"MarkovTaskGamblingJ2"	18	1	1	1	0.297015	0.16758	"e"	"i"	0	1	2	41
"MarkovTaskGamblingJ2"	19	1	0	1	0.21515	0.387395	"e"	"e"	1	1	2	41
"MarkovTaskGamblingJ2"	20	1	1	1	0.28026	0.45851	"e"	"e"	1	1	2	41
"MarkovTaskGamblingJ2"	21	1	1	1	0.014225	0.684005	"e"	"e"	1	1	2	41
"MarkovTaskGamblingJ2"	22	1	1	1	0.075695	0.273595	"e"	"e"	0	1	2	41
"MarkovTaskGamblingJ2"	23	1	0	1	0.05217	0.327855	"e"	"i"	0	0	2	41
"MarkovTaskGamblingJ2"	24	0	0	0	0.357275	0.349605	"i"	"e"	1	0	2	41
"MarkovTaskGamblingJ2"	25	1	1	0	0.306015	0.40342	"i"	"e"	0	0	2	41
"MarkovTaskGamblingJ2"	26	1	0	0	0.245795	0.252805	"i"	"i"	1	1	2	41
"MarkovTaskGamblingJ2"	27	1	1	1	0.245325	0.1974	"i"	"i"	1	0	2	41
"MarkovTaskGamblingJ2"	28	1	1	0	0.25479	0.238805	"i"	"i"	1	1	2	41
"MarkovTaskGamblingJ2"	29	1	1	1	0.257165	0.20898	"i"	"i"	1	1	2	41
"MarkovTaskGamblingJ2"	30	1	1	1	0.23403	0.256285	"i"	"i"	0	1	2	41
"MarkovTaskGamblingJ2"	31	0	0	1	0.371295	0.08713	"e"	"e"	0	0	2	41
"MarkovTaskGamblingJ2"	32	0	0	0	0.655435	0.45803	"i"	"i"	0	1	2	41
"MarkovTaskGamblingJ2"	33	1	0	1	0.267915	0.257525	"i"	"e"	1	1	2	41
"MarkovTaskGamblingJ2"	34	1	1	1	0.280235	0.06734	"i"	"e"	1	1	2	41
"MarkovTaskGamblingJ2"	35	1	1	1	0.2843	0.07518	"i"	"e"	0	1	2	41
"MarkovTaskGamblingJ2"	36	0	0	1	0.27322	0.195005	"e"	"i"	1	1	2	41
"MarkovTaskGamblingJ2"	37	1	1	1	0.214005	0.19442	"e"	"i"	1	0	2	41
"MarkovTaskGamblingJ2"	38	1	1	0	0.30032	0.203615	"e"	"i"	0	1	2	41
"MarkovTaskGamblingJ2"	39	0	0	1	0.30532	0.066345	"i"	"e"	0	1	2	41
"MarkovTaskGamblingJ2"	40	1	0	1	0.2595	0.000835	"i"	"e"	1	0	2	41
"MarkovTaskGamblingJ2"	41	1	1	0	0.29471	0.2066	"i"	"e"	1	1	2	41
"MarkovTaskGamblingJ2"	42	0	1	1	0.26748	0.100975	"e"	"i"	1	1	2	41
"MarkovTaskGamblingJ2"	43	0	1	1	0.276865	0.241025	"i"	"e"	0	1	2	41
"MarkovTaskGamblingJ2"	44	0	0	1	0.281655	0.16214	"e"	"i"	0	1	2	41
"MarkovTaskGamblingJ2"	45	0	0	1	0.239155	0.303615	"i"	"i"	1	1	2	41
"MarkovTaskGamblingJ2"	46	1	1	1	0.25902	0.323005	"i"	"e"	0	1	2	41
"MarkovTaskGamblingJ2"	47	1	0	1	0.22794	0.31791	"i"	"i"	0	1	2	41
"MarkovTaskGamblingJ2"	48	0	0	1	0.00709	0.127535	"e"	"e"	1	1	2	41
"MarkovTaskGamblingJ2"	49	1	1	1	0.289075	0.16234	"e"	"e"	0	1	2	41
"MarkovTaskGamblingJ2"	50	1	0	1	0.255715	0.21951	"e"	"i"	0	0	2	41
"MarkovTaskGamblingJ2"	51	1	0	0	0.25407	0.52731	"e"	"e"	1	1	2	41
"MarkovTaskGamblingJ2"	52	0	1	1	0.313425	0.72782	"i"	"e"	1	1	2	41
"MarkovTaskGamblingJ2"	53	1	1	1	0.17938	0.16747	"i"	"e"	1	1	2	41
"MarkovTaskGamblingJ2"	54	1	1	1	0.27797	0.16259	"i"	"e"	0	1	2	41
"MarkovTaskGamblingJ2"	55	1	0	1	0.26784	0.834115	"i"	"i"	0	0	2	41
"MarkovTaskGamblingJ2"	56	1	0	0	0.25417	0.07324	"i"	"e"	0	1	2	41
"MarkovTaskGamblingJ2"	57	0	0	1	0.309295	0.20156	"e"	"i"	0	0	2	41
"MarkovTaskGamblingJ2"	58	1	0	0	0.301275	0.20037	"e"	"e"	1	1	2	41
"MarkovTaskGamblingJ2"	59	1	1	1	0.278835	0.45356	"e"	"i"	1	1	2	41
"MarkovTaskGamblingJ2"	60	1	1	1	0.35529	0.695495	"e"	"i"	1	1	2	41
"MarkovTaskGamblingJ2"	61	1	1	1	0.307015	0.31638	"e"	"i"	1	1	2	41
"MarkovTaskGamblingJ2"	62	1	1	1	0.477085	0.49309	"e"	"i"	0	1	2	41
"MarkovTaskGamblingJ2"	63	1	0	1	0.00307	0.418575	"e"	"e"	1	1	2	41
"MarkovTaskGamblingJ2"	64	0	1	1	0.422115	0.351955	"i"	"e"	1	0	2	41
"MarkovTaskGamblingJ2"	65	0	1	0	0.259265	0.227635	"e"	"i"	1	1	2	41
"MarkovTaskGamblingJ2"	66	0	1	1	0.27308	0.25052	"i"	"e"	1	1	2	41
"MarkovTaskGamblingJ2"	67	1	1	1	0.337755	0.26781	"i"	"e"	1	0	2	41
"MarkovTaskGamblingJ2"	68	1	1	0	0.33473	0.23411	"i"	"e"	0	1	2	41
"MarkovTaskGamblingJ2"	69	0	0	1	0.25778	0.226735	"e"	"i"	0	1	2	41
"MarkovTaskGamblingJ2"	70	0	0	1	0.307145	0.258025	"i"	"e"	0	1	2	41
"MarkovTaskGamblingJ2"	71	1	0	1	0.268005	0.091375	"i"	"i"	1	1	2	41
"MarkovTaskGamblingJ2"	72	1	1	1	0.218595	0.157875	"i"	"e"	1	1	2	41
"MarkovTaskGamblingJ2"	73	1	1	1	0.224835	0.038675	"i"	"e"	1	1	2	41
"MarkovTaskGamblingJ2"	74	1	1	1	0.25986	0.41796	"i"	"e"	0	1	2	41
"MarkovTaskGamblingJ2"	75	0	0	1	0.32621	0.2045	"e"	"i"	1	0	2	41
"MarkovTaskGamblingJ2"	76	1	1	0	0.26934	0.169165	"e"	"i"	0	1	2	41
"MarkovTaskGamblingJ2"	77	1	0	1	0.654175	0.393205	"e"	"e"	1	1	2	41
"MarkovTaskGamblingJ2"	78	0	1	1	0.298015	0.02254	"i"	"i"	1	1	2	41
"MarkovTaskGamblingJ2"	79	1	1	1	0.255655	0.243065	"i"	"e"	1	0	2	41
"MarkovTaskGamblingJ2"	80	1	1	0	0.311555	0.2467	"i"	"e"	0	0	2	41
"MarkovTaskGamblingJ2"	81	1	0	0	0.78469	0.653105	"i"	"e"	1	1	2	41
"MarkovTaskGamblingJ2"	82	1	1	1	0.1763	0.63764	"i"	"e"	1	1	2	41
"MarkovTaskGamblingJ2"	83	1	1	1	0.273105	0.484785	"i"	"e"	0	1	2	41
"MarkovTaskGamblingJ2"	84	1	0	1	0.307115	0.19682	"i"	"e"	1	1	2	41
"MarkovTaskGamblingJ2"	85	1	1	1	0.29055	0.185065	"i"	"e"	1	1	2	41
"MarkovTaskGamblingJ2"	86	1	1	1	0.272555	0.10597	"i"	"e"	0	1	2	41
"MarkovTaskGamblingJ2"	87	1	0	1	0.26422	0.7243	"i"	"i"	0	1	2	41
"MarkovTaskGamblingJ2"	88	1	0	1	0.209545	0.16654	"i"	"e"	0	1	2	41
"MarkovTaskGamblingJ2"	89	0	0	1	0.63808	0.53283	"e"	"i"	1	1	2	41
"MarkovTaskGamblingJ2"	90	1	1	1	0.250765	0.23397	"e"	"i"	1	1	2	41
"MarkovTaskGamblingJ2"	91	1	1	1	0.3001	0.200755	"e"	"i"	1	1	2	41
"MarkovTaskGamblingJ2"	92	1	1	1	0.27738	0.15078	"e"	"i"	0	1	2	41
"MarkovTaskGamblingJ2"	93	1	0	1	0.33627	0.40375	"e"	"e"	0	1	2	41
"MarkovTaskGamblingJ2"	94	0	0	1	0.251425	0.539065	"i"	"e"	0	1	2	41
"MarkovTaskGamblingJ2"	95	1	0	1	0.26705	0.08941	"i"	"i"	0	1	2	41
"MarkovTaskGamblingJ2"	96	0	0	1	0.26834	0.43852	"e"	"e"	1	1	2	41
"MarkovTaskGamblingJ2"	97	0	1	1	0.80639	0.41721	"i"	"i"	1	1	2	41
"MarkovTaskGamblingJ2"	98	0	1	1	0.26735	0.567755	"e"	"i"	0	0	2	41
"MarkovTaskGamblingJ2"	99	1	0	0	0.068085	0.152555	"e"	"e"	1	1	2	41
"MarkovTaskGamblingJ2"	100	1	1	1	0.226025	0.41225	"e"	"i"	1	1	2	41
"MarkovTaskGamblingJ2"	101	1	1	1	0.261475	0.13066	"e"	"i"	0	0	2	41
"MarkovTaskGamblingJ2"	102	0	0	0	0.28869	0.464195	"i"	"i"	1	0	2	41
"MarkovTaskGamblingJ2"	103	1	1	0	0.60094	0.279965	"i"	"e"	1	1	2	41
"MarkovTaskGamblingJ2"	104	0	1	1	0.30081	0.179965	"e"	"i"	1	1	2	41
"MarkovTaskGamblingJ2"	105	1	1	1	0.29803	0.27897	"e"	"i"	1	0	2	41
"MarkovTaskGamblingJ2"	106	1	1	0	0.317465	0.32474	"e"	"i"	0	0	2	41
"MarkovTaskGamblingJ2"	107	0	0	0	0.38432	0.217125	"i"	"e"	1	1	2	41
"MarkovTaskGamblingJ2"	108	1	1	1	0.28884	0.3713	"i"	"e"	0	1	2	41
"MarkovTaskGamblingJ2"	109	1	0	1	0.33719	0.107295	"i"	"i"	0	1	2	41
"MarkovTaskGamblingJ2"	110	0	0	1	0.702445	0.55831	"e"	"e"	1	1	2	41
"MarkovTaskGamblingJ2"	111	0	1	1	0.317545	0.51763	"i"	"i"	0	1	2	41
"MarkovTaskGamblingJ2"	112	0	0	1	0.294945	0.189295	"e"	"e"	1	1	2	41
"MarkovTaskGamblingJ2"	113	0	1	1	0.285055	0.493135	"i"	"i"	1	1	2	41
"MarkovTaskGamblingJ2"	114	0	1	1	0.316925	0.38904	"e"	"i"	0	0	2	41
"MarkovTaskGamblingJ2"	115	1	0	0	0.28381	0.02955	"e"	"e"	1	1	2	41
"MarkovTaskGamblingJ2"	116	1	1	1	0.29706	0.455325	"e"	"i"	0	1	2	41
"MarkovTaskGamblingJ2"	117	1	0	1	0.290485	0.679865	"e"	"e"	1	1	2	41
"MarkovTaskGamblingJ2"	118	0	1	1	0.08716	0.267535	"i"	"i"	1	1	2	41
"MarkovTaskGamblingJ2"	119	0	1	1	0.269175	0.47143	"e"	"e"	1	1	2	41
"MarkovTaskGamblingJ2"	120	1	1	1	0.26146	0.394675	"e"	"i"	0	0	2	41
"MarkovTaskGamblingJ2"	121	1	0	0	0.239435	0.07668	"e"	"e"	1	1	2	41
"MarkovTaskGamblingJ2"	122	1	1	1	0.45674	0.671685	"e"	"i"	1	0	2	41
"MarkovTaskGamblingJ2"	123	1	1	0	0.084125	0.40095	"e"	"i"	1	0	2	41
"MarkovTaskGamblingJ2"	124	1	1	0	0.2519	0.88301	"e"	"e"	0	1	2	41
"MarkovTaskGamblingJ2"	125	0	0	1	0.63419	0.61736	"i"	"i"	0	1	2	41
"MarkovTaskGamblingJ2"	126	1	0	1	0.35592	0.235905	"i"	"e"	0	1	2	41
"MarkovTaskGamblingJ2"	127	0	0	1	0.329325	0.266515	"e"	"i"	1	1	2	41
"MarkovTaskGamblingJ2"	128	1	1	1	0.2718	0.27036	"e"	"i"	1	1	2	41
"MarkovTaskGamblingJ2"	129	1	1	1	0.460455	0.02933	"e"	"e"	1	1	2	41
"MarkovTaskGamblingJ2"	130	1	1	1	0.500275	0.851375	"e"	"e"	0	0	2	41
"MarkovTaskGamblingJ2"	131	0	0	0	0.196395	0.59396	"i"	"i"	1	0	2	41
"MarkovTaskGamblingJ2"	132	1	1	0	0.045835	0.35999	"i"	"i"	1	0	2	41
"MarkovTaskGamblingJ2"	133	1	1	0	0.22025	0.250755	"i"	"e"	0	1	2	41
"MarkovTaskGamblingJ2"	134	0	0	1	0.22146	0.239665	"e"	"i"	1	1	2	41
"MarkovTaskGamblingJ2"	135	1	1	1	0.267995	0.40071	"e"	"i"	0	1	2	41
"MarkovTaskGamblingJ2"	136	1	0	1	0.21148	0.234885	"e"	"e"	1	1	2	41
"MarkovTaskGamblingJ2"	137	1	1	1	0.70484	0.50166	"e"	"e"	1	1	2	41
"MarkovTaskGamblingJ2"	138	1	1	1	0.39893	0.48376	"e"	"e"	1	1	2	41
"MarkovTaskGamblingJ2"	139	1	1	1	0.12676	0.150755	"e"	"e"	0	1	2	41
"MarkovTaskGamblingJ2"	140	1	0	1	0.384915	0.125245	"e"	"i"	0	1	2	41
"MarkovTaskGamblingJ2"	141	1	0	1	0.16045	0.613185	"e"	"i"	1	1	2	41
"MarkovTaskGamblingJ2"	142	1	1	1	0.263185	0.250615	"e"	"i"	0	0	2	41
"MarkovTaskGamblingJ2"	143	0	0	0	0.069375	0.321695	"i"	"e"	0	0	2	41
"MarkovTaskGamblingJ2"	144	1	0	0	0.05179	0.45059	"i"	"e"	1	0	2	41
"MarkovTaskGamblingJ2"	145	1	1	0	0.16906	0.26715	"i"	"e"	1	1	2	41
"MarkovTaskGamblingJ2"	146	1	1	1	0.831945	0.267635	"i"	"e"	1	0	2	41
"MarkovTaskGamblingJ2"	147	1	1	0	0.239235	0.20377	"i"	"e"	0	0	2	41
"MarkovTaskGamblingJ2"	148	0	0	0	0.33372	0.24283	"e"	"i"	0	1	2	41
"MarkovTaskGamblingJ2"	149	0	0	1	0.329215	0.442545	"i"	"i"	0	0	2	41
"MarkovTaskGamblingJ2"	150	1	0	0	0.3149	0.20252	"i"	"e"	1	0	2	41
"MarkovTaskGamblingJ2"	151	1	1	0	0.24454	0.045585	"i"	"e"	0	1	2	41
"MarkovTaskGamblingJ2"	152	1	0	1	0.28863	0.06757	"i"	"i"	0	1	2	41
"MarkovTaskGamblingJ2"	153	0	0	1	0.14268	0.01925	"e"	"e"	0	1	2	41
"MarkovTaskGamblingJ2"	154	1	0	1	0.602465	0.447585	"e"	"e"	1	0	2	41
"MarkovTaskGamblingJ2"	155	1	1	0	0.84052	0.434735	"e"	"e"	0	0	2	41
"MarkovTaskGamblingJ2"	156	1	0	0	0.58366	0.13876	"e"	"e"	0	1	2	41
"MarkovTaskGamblingJ2"	157	0	0	1	0.13399	0.250825	"i"	"e"	0	1	2	41
"MarkovTaskGamblingJ2"	158	1	0	1	1.083875	0.42165	"i"	"i"	1	1	2	41
"MarkovTaskGamblingJ2"	159	1	1	1	0.53391	0.45817	"i"	"i"	0	1	2	41
"MarkovTaskGamblingJ2"	160	1	0	1	0.31049	0.15702	"i"	"e"	0	1	2	41
"MarkovTaskGamblingJ2"	161	1	0	1	0.39372	0.49467	"i"	"e"	1	1	2	41
"MarkovTaskGamblingJ2"	162	0	1	1	0.27193	0.36803	"e"	"i"	0	0	2	41
"MarkovTaskGamblingJ2"	163	0	0	0	0.25429	0.000815	"i"	"e"	1	1	2	41
"MarkovTaskGamblingJ2"	164	1	1	1	0.250375	0.323415	"i"	"e"	0	1	2	41
"MarkovTaskGamblingJ2"	165	1	0	1	0.697855	0.32312	"i"	"i"	1	1	2	41
"MarkovTaskGamblingJ2"	166	1	1	1	0.021255	0.534025	"i"	"e"	0	1	2	41
"MarkovTaskGamblingJ2"	167	1	0	1	0.92039	0.31817	"i"	"i"	1	1	2	41
"MarkovTaskGamblingJ2"	168	1	1	1	0.24119	0.29086	"i"	"i"	1	1	2	41
"MarkovTaskGamblingJ2"	169	1	1	1	0.66894	0.383875	"i"	"i"	1	1	2	41
"MarkovTaskGamblingJ2"	170	1	1	1	0.289375	0.270495	"i"	"i"	1	0	2	41
"MarkovTaskGamblingJ2"	171	1	1	0	0.666615	0.310115	"i"	"i"	0	0	2	41
"MarkovTaskGamblingJ2"	172	1	0	0	0.73632	0.151575	"i"	"e"	0	0	2	41
"MarkovTaskGamblingJ2"	173	0	0	0	0.86677	0.531305	"e"	"i"	1	1	2	41
"MarkovTaskGamblingJ2"	174	1	1	1	0.37762	0.91722	"e"	"i"	0	0	2	41
"MarkovTaskGamblingJ2"	175	1	0	0	0.270615	0.329945	"e"	"i"	0	1	2	41
"MarkovTaskGamblingJ2"	176	0	0	1	0.373385	0.41763	"i"	"e"	0	1	2	41
"MarkovTaskGamblingJ2"	177	1	0	1	0.34171	0.394715	"i"	"i"	0	0	2	41
"MarkovTaskGamblingJ2"	178	0	0	0	0.36709	0.692055	"e"	"i"	1	1	2	41
"MarkovTaskGamblingJ2"	179	0	1	1	0.637575	0.46794	"i"	"e"	0	1	2	41
"MarkovTaskGamblingJ2"	180	1	0	1	0.251275	0.396055	"i"	"i"	0	1	2	41
"MarkovTaskGamblingJ2"	181	0	0	1	0.37766	0.23768	"e"	"e"	1	1	2	41
"MarkovTaskGamblingJ2"	182	1	1	1	0.378575	0.723425	"e"	"i"	1	1	2	41
"MarkovTaskGamblingJ2"	183	1	1	1	0.61886	0.53275	"e"	"i"	0	0	2	41
"MarkovTaskGamblingJ2"	184	1	0	0	0.368165	0.76223	"e"	"i"	0	1	2	41
"MarkovTaskGamblingJ2"	185	0	0	1	0.32618	0.14402	"i"	"e"	1	1	2	41
"MarkovTaskGamblingJ2"	186	0	1	1	0.58808	0.13311	"e"	"e"	1	0	2	41
"MarkovTaskGamblingJ2"	187	1	1	0	0.397245	0.428675	"e"	"e"	0	1	2	41
"MarkovTaskGamblingJ2"	188	0	0	1	0.923755	0.416435	"i"	"i"	1	1	2	41
"MarkovTaskGamblingJ2"	189	0	1	1	0.36884	0.29422	"e"	"i"	1	1	2	41
"MarkovTaskGamblingJ2"	190	1	1	1	0.05385	0.26277	"e"	"i"	0	0	2	41
"MarkovTaskGamblingJ2"	191	0	0	0	0.357115	0.327815	"i"	"e"	1	1	2	41
"MarkovTaskGamblingJ2"	192	1	1	1	0.5169	0.41634	"i"	"e"	0	1	2	41
"MarkovTaskGamblingJ2"	193	1	0	1	0.28812	0.117545	"i"	"i"	1	1	2	41
"MarkovTaskGamblingJ2"	194	1	1	1	0.371165	0.426545	"i"	"e"	0	0	2	41
"MarkovTaskGamblingJ2"	195	0	0	0	0.05449	0.317435	"e"	"i"	0	1	2	41
"MarkovTaskGamblingJ2"	196	1	0	1	0.214145	0.324875	"e"	"e"	1	1	2	41
"MarkovTaskGamblingJ2"	197	1	1	1	0.320765	0.17852	"e"	"i"	1	1	2	41
"MarkovTaskGamblingJ2"	198	0	1	1	0.395025	0.342695	"i"	"e"	1	1	2	41
"MarkovTaskGamblingJ2"	199	0	1	1	0.350645	0.15024	"e"	"i"	1	1	2	41
"MarkovTaskGamblingJ2"	200	1	1	1	0.256445	0.05857	"e"	"i"	1	1	2	41
"MarkovTaskGamblingJ2"	11	0	0	1	0.308695	0.26674	"e"	"i"	1	1	2	43
"MarkovTaskGamblingJ2"	12	1	1	1	0.29886	0.23772	"e"	"i"	0	0	2	43
"MarkovTaskGamblingJ2"	13	1	0	0	0.31181	0.269775	"e"	"e"	1	0	2	43
"MarkovTaskGamblingJ2"	14	1	1	0	0.313515	0.104835	"e"	"e"	1	1	2	43
"MarkovTaskGamblingJ2"	15	1	1	1	0.28504	0.28421	"e"	"e"	0	0	2	43
"MarkovTaskGamblingJ2"	16	1	0	0	0.364425	0.30133	"e"	"i"	1	1	2	43
"MarkovTaskGamblingJ2"	17	1	1	1	0.369635	0.298545	"e"	"i"	1	1	2	43
"MarkovTaskGamblingJ2"	18	1	1	1	0.398505	0.252685	"e"	"i"	1	1	2	43
"MarkovTaskGamblingJ2"	19	1	1	1	0.356955	0.24891	"e"	"i"	1	1	2	43
"MarkovTaskGamblingJ2"	20	1	1	1	0.319275	0.28496	"e"	"i"	1	1	2	43
"MarkovTaskGamblingJ2"	21	1	1	1	0.28658	0.301525	"e"	"i"	0	0	2	43
"MarkovTaskGamblingJ2"	22	0	0	0	0.41984	0.28158	"i"	"e"	1	0	2	43
"MarkovTaskGamblingJ2"	23	1	1	0	0.34803	0.301275	"i"	"e"	1	1	2	43
"MarkovTaskGamblingJ2"	24	1	1	1	0.382155	0.33417	"i"	"e"	1	1	2	43
"MarkovTaskGamblingJ2"	25	1	1	1	0.40076	0.28972	"i"	"e"	1	1	2	43
"MarkovTaskGamblingJ2"	26	1	1	1	0.382835	0.33287	"i"	"e"	1	1	2	43
"MarkovTaskGamblingJ2"	27	1	1	1	0.3166	0.31803	"i"	"e"	1	0	2	43
"MarkovTaskGamblingJ2"	28	1	1	0	0.351345	0.40172	"i"	"e"	0	1	2	43
"MarkovTaskGamblingJ2"	29	1	0	1	0.34803	0.296655	"i"	"i"	0	0	2	43
"MarkovTaskGamblingJ2"	30	1	0	0	0.38124	0.29557	"i"	"e"	0	1	2	43
"MarkovTaskGamblingJ2"	31	0	0	1	0.514425	0.30207	"e"	"i"	0	1	2	43
"MarkovTaskGamblingJ2"	32	1	0	1	0.34915	0.281475	"e"	"e"	0	0	2	43
"MarkovTaskGamblingJ2"	33	1	0	0	0.368485	0.354495	"e"	"i"	0	0	2	43
"MarkovTaskGamblingJ2"	34	0	0	0	0.37855	0.27139	"i"	"e"	0	1	2	43
"MarkovTaskGamblingJ2"	35	1	0	1	0.435675	0.2698	"i"	"i"	0	0	2	43
"MarkovTaskGamblingJ2"	36	0	0	0	0.453285	0.437285	"e"	"i"	1	1	2	43
"MarkovTaskGamblingJ2"	37	1	1	1	0.4406	0.29025	"e"	"i"	1	1	2	43
"MarkovTaskGamblingJ2"	38	1	1	1	0.542585	0.256725	"e"	"i"	1	1	2	43
"MarkovTaskGamblingJ2"	39	1	1	1	0.542285	0.3878	"e"	"i"	1	1	2	43
"MarkovTaskGamblingJ2"	40	1	1	1	0.312325	0.29932	"e"	"i"	1	1	2	43
"MarkovTaskGamblingJ2"	41	1	1	1	0.349875	0.283645	"e"	"i"	0	1	2	43
"MarkovTaskGamblingJ2"	42	1	0	1	0.468365	0.30849	"e"	"i"	1	0	2	43
"MarkovTaskGamblingJ2"	43	1	1	0	0.327	0.268195	"e"	"i"	0	0	2	43
"MarkovTaskGamblingJ2"	44	1	0	0	0.466005	0.29478	"e"	"e"	1	0	2	43
"MarkovTaskGamblingJ2"	45	1	1	0	0.450965	0.26573	"e"	"e"	1	1	2	43
"MarkovTaskGamblingJ2"	46	1	1	1	0.376505	0.31768	"e"	"e"	1	0	2	43
"MarkovTaskGamblingJ2"	47	1	1	0	0.335835	0.149945	"e"	"e"	1	1	2	43
"MarkovTaskGamblingJ2"	48	1	1	1	0.36756	0.22565	"e"	"e"	1	1	2	43
"MarkovTaskGamblingJ2"	49	1	1	1	0.33087	0.146985	"e"	"e"	1	1	2	43
"MarkovTaskGamblingJ2"	50	1	1	1	0.377385	0.135725	"e"	"e"	1	1	2	43
"MarkovTaskGamblingJ2"	51	1	1	1	0.41898	0.286835	"e"	"e"	0	0	2	43
"MarkovTaskGamblingJ2"	52	0	0	0	0.350735	0.450015	"i"	"e"	0	0	2	43
"MarkovTaskGamblingJ2"	53	1	0	0	0.33401	0.30447	"i"	"i"	1	1	2	43
"MarkovTaskGamblingJ2"	54	1	1	1	0.330655	0.28508	"i"	"i"	1	0	2	43
"MarkovTaskGamblingJ2"	55	1	1	0	0.36798	0.29785	"i"	"i"	1	1	2	43
"MarkovTaskGamblingJ2"	56	1	1	1	0.35202	0.297275	"i"	"i"	0	1	2	43
"MarkovTaskGamblingJ2"	57	0	0	1	0.40959	0.31988	"e"	"i"	1	1	2	43
"MarkovTaskGamblingJ2"	58	1	1	1	0.577155	0.286685	"e"	"i"	0	0	2	43
"MarkovTaskGamblingJ2"	59	1	0	0	0.384825	0.34609	"e"	"e"	0	1	2	43
"MarkovTaskGamblingJ2"	60	0	0	1	0.406975	0.363545	"i"	"i"	0	1	2	43
"MarkovTaskGamblingJ2"	61	0	0	1	0.369175	0.36606	"e"	"e"	1	0	2	43
"MarkovTaskGamblingJ2"	62	1	1	0	0.34337	0.278785	"e"	"e"	0	0	2	43
"MarkovTaskGamblingJ2"	63	0	0	0	0.3964	0.45392	"i"	"e"	1	1	2	43
"MarkovTaskGamblingJ2"	64	1	1	1	0.32434	0.263095	"i"	"e"	1	1	2	43
"MarkovTaskGamblingJ2"	65	1	1	1	0.32034	0.42236	"i"	"e"	0	1	2	43
"MarkovTaskGamblingJ2"	66	1	0	1	0.41591	0.317785	"i"	"i"	1	1	2	43
"MarkovTaskGamblingJ2"	67	1	1	1	0.416405	0.098295	"i"	"i"	1	0	2	43
"MarkovTaskGamblingJ2"	68	1	1	0	0.33081	0.295195	"i"	"i"	0	1	2	43
"MarkovTaskGamblingJ2"	69	0	0	1	0.32067	0.305985	"e"	"e"	0	1	2	43
"MarkovTaskGamblingJ2"	70	0	0	1	0.36309	0.24902	"i"	"i"	1	1	2	43
"MarkovTaskGamblingJ2"	71	1	1	1	0.352625	0.273635	"i"	"i"	1	0	2	43
"MarkovTaskGamblingJ2"	72	1	1	0	0.350385	0.154845	"i"	"i"	0	1	2	43
"MarkovTaskGamblingJ2"	73	0	0	1	0.435375	0.279835	"e"	"i"	1	0	2	43
"MarkovTaskGamblingJ2"	74	1	1	0	0.46204	0.30187	"e"	"i"	1	1	2	43
"MarkovTaskGamblingJ2"	75	1	1	1	0.39738	0.225685	"e"	"i"	1	1	2	43
"MarkovTaskGamblingJ2"	76	1	1	1	0.3675	0.247605	"e"	"i"	1	0	2	43
"MarkovTaskGamblingJ2"	77	1	1	0	0.612695	0.278015	"e"	"i"	1	1	2	43
"MarkovTaskGamblingJ2"	78	1	1	1	0.63389	0.264805	"e"	"i"	1	1	2	43
"MarkovTaskGamblingJ2"	79	1	1	1	0.38833	0.274775	"e"	"i"	0	0	2	43
"MarkovTaskGamblingJ2"	80	1	0	0	0.45099	0.23647	"e"	"i"	0	0	2	43
"MarkovTaskGamblingJ2"	81	1	0	0	0.55292	0.2924	"e"	"i"	0	0	2	43
"MarkovTaskGamblingJ2"	82	0	0	0	0.322245	0.294615	"i"	"e"	1	1	2	43
"MarkovTaskGamblingJ2"	83	1	1	1	0.332875	0.296515	"i"	"e"	1	1	2	43
"MarkovTaskGamblingJ2"	84	1	1	1	0.26118	0.215675	"i"	"e"	1	1	2	43
"MarkovTaskGamblingJ2"	85	1	1	1	0.48897	0.136815	"i"	"e"	1	1	2	43
"MarkovTaskGamblingJ2"	86	1	1	1	0.41513	0.285785	"i"	"e"	1	0	2	43
"MarkovTaskGamblingJ2"	87	1	1	0	0.368005	0.234275	"i"	"e"	1	0	2	43
"MarkovTaskGamblingJ2"	88	1	1	0	0.36718	0.445445	"i"	"e"	1	1	2	43
"MarkovTaskGamblingJ2"	89	1	1	1	0.37566	0.28727	"i"	"e"	0	0	2	43
"MarkovTaskGamblingJ2"	90	1	0	0	0.354665	0.38914	"i"	"i"	1	0	2	43
"MarkovTaskGamblingJ2"	91	1	1	0	0.49359	0.2695	"i"	"i"	0	1	2	43
"MarkovTaskGamblingJ2"	92	0	0	1	0.36778	0.250845	"e"	"e"	0	0	2	43
"MarkovTaskGamblingJ2"	93	0	0	0	0.341975	0.304135	"i"	"e"	1	1	2	43
"MarkovTaskGamblingJ2"	94	1	1	1	0.349675	0.298865	"i"	"e"	0	1	2	43
"MarkovTaskGamblingJ2"	95	1	0	1	0.361225	0.23241	"i"	"i"	1	0	2	43
"MarkovTaskGamblingJ2"	96	1	1	0	0.441185	0.398345	"i"	"e"	0	0	2	43
"MarkovTaskGamblingJ2"	97	1	0	0	0.317775	0.25107	"i"	"i"	0	0	2	43
"MarkovTaskGamblingJ2"	98	0	0	0	0.35438	1.117635	"e"	"e"	1	1	2	43
"MarkovTaskGamblingJ2"	99	0	1	1	0.984545	0.300555	"i"	"e"	1	1	2	43
"MarkovTaskGamblingJ2"	100	1	1	1	0.369765	0.31803	"i"	"e"	1	1	2	43
"MarkovTaskGamblingJ2"	101	1	1	1	0.276725	0.300525	"i"	"e"	1	1	2	43
"MarkovTaskGamblingJ2"	102	1	1	1	0.40841	0.119205	"i"	"e"	1	1	2	43
"MarkovTaskGamblingJ2"	103	1	1	1	0.421735	0.12289	"i"	"e"	0	1	2	43
"MarkovTaskGamblingJ2"	104	1	0	1	0.513125	0.36817	"i"	"i"	0	0	2	43
"MarkovTaskGamblingJ2"	105	0	0	0	0.41972	0.237265	"e"	"i"	1	1	2	43
"MarkovTaskGamblingJ2"	106	1	1	1	0.581275	0.36538	"e"	"i"	1	0	2	43
"MarkovTaskGamblingJ2"	107	1	1	0	0.517235	0.277165	"e"	"i"	1	1	2	43
"MarkovTaskGamblingJ2"	108	1	1	1	0.38411	0.3048	"e"	"i"	1	1	2	43
"MarkovTaskGamblingJ2"	109	1	1	1	0.70105	0.296155	"e"	"i"	0	0	2	43
"MarkovTaskGamblingJ2"	110	0	0	0	0.4785	0.351875	"i"	"e"	1	1	2	43
"MarkovTaskGamblingJ2"	111	1	1	1	0.33028	0.15948	"i"	"e"	1	1	2	43
"MarkovTaskGamblingJ2"	112	1	1	1	0.45196	0.381595	"i"	"e"	0	1	2	43
"MarkovTaskGamblingJ2"	113	1	0	1	0.296645	0.25362	"i"	"i"	0	1	2	43
"MarkovTaskGamblingJ2"	114	0	0	1	0.42798	0.36316	"e"	"i"	0	1	2	43
"MarkovTaskGamblingJ2"	115	0	0	1	0.45326	0.328155	"i"	"e"	1	1	2	43
"MarkovTaskGamblingJ2"	116	1	1	1	0.3014	0.30036	"i"	"e"	0	1	2	43
"MarkovTaskGamblingJ2"	117	0	0	1	0.2709	0.312415	"e"	"e"	1	0	2	43
"MarkovTaskGamblingJ2"	118	1	1	0	0.36653	0.272185	"e"	"e"	1	0	2	43
"MarkovTaskGamblingJ2"	119	1	1	0	0.43322	0.22972	"e"	"e"	1	1	2	43
"MarkovTaskGamblingJ2"	120	1	1	1	0.34915	0.2645	"e"	"e"	1	1	2	43
"MarkovTaskGamblingJ2"	121	1	1	1	0.351155	0.34347	"e"	"e"	1	1	2	43
"MarkovTaskGamblingJ2"	122	1	1	1	0.353015	0.26801	"e"	"e"	1	1	2	43
"MarkovTaskGamblingJ2"	123	1	1	1	0.322975	0.132785	"e"	"e"	0	0	2	43
"MarkovTaskGamblingJ2"	124	1	0	0	0.360535	0.384805	"e"	"e"	0	1	2	43
"MarkovTaskGamblingJ2"	125	0	0	1	0.55473	0.54905	"i"	"e"	0	1	2	43
"MarkovTaskGamblingJ2"	126	1	0	1	0.3014	0.384355	"i"	"i"	0	1	2	43
"MarkovTaskGamblingJ2"	127	0	0	1	0.419095	0.24683	"e"	"i"	0	1	2	43
"MarkovTaskGamblingJ2"	128	1	0	1	0.480675	0.325675	"e"	"e"	0	0	2	43
"MarkovTaskGamblingJ2"	129	1	0	0	1.381065	0.283775	"e"	"i"	0	1	2	43
"MarkovTaskGamblingJ2"	130	0	0	1	0.41817	0.298085	"i"	"e"	0	1	2	43
"MarkovTaskGamblingJ2"	131	1	0	1	0.3143	0.25858	"i"	"i"	0	1	2	43
"MarkovTaskGamblingJ2"	132	1	0	1	0.03611	0.3829	"i"	"i"	1	0	2	43
"MarkovTaskGamblingJ2"	133	1	1	0	0.306405	0.22633	"i"	"i"	1	0	2	43
"MarkovTaskGamblingJ2"	134	1	1	0	0.34781	0.251605	"i"	"i"	1	1	2	43
"MarkovTaskGamblingJ2"	135	1	1	1	0.326595	0.255615	"i"	"i"	0	0	2	43
"MarkovTaskGamblingJ2"	136	0	0	0	0.42725	0.049985	"e"	"i"	1	1	2	43
"MarkovTaskGamblingJ2"	137	1	1	1	0.380895	0.33454	"e"	"i"	0	1	2	43
"MarkovTaskGamblingJ2"	138	1	0	1	0.44834	0.363405	"e"	"i"	1	1	2	43
"MarkovTaskGamblingJ2"	139	1	1	1	0.50073	0.312325	"e"	"i"	1	1	2	43
"MarkovTaskGamblingJ2"	140	1	1	1	0.48459	0.30393	"e"	"i"	0	1	2	43
"MarkovTaskGamblingJ2"	141	0	0	1	0.51021	0.636085	"i"	"i"	0	1	2	43
"MarkovTaskGamblingJ2"	142	0	0	1	0.3022	0.406455	"e"	"e"	1	1	2	43
"MarkovTaskGamblingJ2"	143	1	1	1	0.38488	0.263745	"e"	"e"	1	1	2	43
"MarkovTaskGamblingJ2"	144	1	1	1	0.30889	0.241215	"e"	"e"	1	1	2	43
"MarkovTaskGamblingJ2"	145	1	1	1	0.435255	0.349955	"e"	"e"	0	1	2	43
"MarkovTaskGamblingJ2"	146	1	0	1	0.654045	0.30013	"e"	"i"	0	0	2	43
"MarkovTaskGamblingJ2"	147	0	0	0	0.31648	0.32815	"i"	"e"	1	1	2	43
"MarkovTaskGamblingJ2"	148	1	1	1	0.31595	0.29295	"i"	"e"	1	0	2	43
"MarkovTaskGamblingJ2"	149	1	1	0	0.419465	0.41631	"i"	"e"	0	1	2	43
"MarkovTaskGamblingJ2"	150	1	0	1	0.512055	0.267265	"i"	"i"	0	1	2	43
"MarkovTaskGamblingJ2"	151	1	0	1	0.597315	0.348665	"i"	"e"	1	1	2	43
"MarkovTaskGamblingJ2"	152	1	1	1	0.41477	0.18915	"i"	"e"	0	0	2	43
"MarkovTaskGamblingJ2"	153	0	0	0	0.362145	0.24954	"e"	"i"	1	1	2	43
"MarkovTaskGamblingJ2"	154	1	1	1	0.397225	0.13018	"e"	"i"	1	1	2	43
"MarkovTaskGamblingJ2"	156	1	1	0	0.49609	0.416405	"e"	"i"	1	1	2	43
"MarkovTaskGamblingJ2"	157	1	1	1	0.431765	0.26993	"e"	"i"	0	1	2	43
"MarkovTaskGamblingJ2"	158	1	0	1	0.50616	0.330765	"e"	"i"	0	1	2	43
"MarkovTaskGamblingJ2"	159	0	0	1	0.34518	0.399855	"i"	"e"	1	1	2	43
"MarkovTaskGamblingJ2"	160	1	1	1	0.40795	0.32353	"i"	"e"	0	1	2	43
"MarkovTaskGamblingJ2"	161	1	0	1	0.35956	0.27839	"i"	"i"	1	0	2	43
"MarkovTaskGamblingJ2"	162	1	1	0	0.371625	0.33061	"i"	"i"	0	1	2	43
"MarkovTaskGamblingJ2"	163	1	0	1	0.374345	0.25424	"i"	"e"	1	0	2	43
"MarkovTaskGamblingJ2"	164	0	1	0	0.55274	0.27041	"e"	"i"	1	1	2	43
"MarkovTaskGamblingJ2"	165	0	1	1	0.44174	0.45234	"i"	"i"	1	1	2	43
"MarkovTaskGamblingJ2"	166	0	1	1	0.34803	0.25635	"e"	"e"	1	1	2	43
"MarkovTaskGamblingJ2"	167	0	1	1	0.04846	1.01719	"i"	"e"	1	1	2	43
"MarkovTaskGamblingJ2"	168	0	1	1	0.465565	0.300255	"e"	"i"	1	0	2	43
"MarkovTaskGamblingJ2"	169	0	1	0	1.428805	0.31281	"i"	"e"	0	0	2	43
"MarkovTaskGamblingJ2"	170	1	0	0	0.466755	0.251425	"i"	"i"	0	0	2	43
"MarkovTaskGamblingJ2"	171	1	0	0	0.550385	0.54673	"i"	"e"	0	1	2	43
"MarkovTaskGamblingJ2"	172	0	0	1	0.534505	0.2828	"e"	"i"	1	1	2	43
"MarkovTaskGamblingJ2"	173	1	1	1	0.43441	0.2519	"e"	"i"	1	1	2	43
"MarkovTaskGamblingJ2"	174	1	1	1	0.432675	0.539915	"e"	"i"	1	1	2	43
"MarkovTaskGamblingJ2"	175	1	1	1	0.383035	0.33217	"e"	"i"	1	1	2	43
"MarkovTaskGamblingJ2"	176	1	1	1	0.31591	0.51394	"e"	"i"	1	1	2	43
"MarkovTaskGamblingJ2"	177	1	1	1	0.329685	0.34141	"e"	"i"	1	1	2	43
"MarkovTaskGamblingJ2"	178	1	1	1	0.41713	0.3236	"e"	"i"	1	1	2	43
"MarkovTaskGamblingJ2"	179	1	1	1	0.62015	0.35078	"e"	"i"	1	1	2	43
"MarkovTaskGamblingJ2"	180	1	1	1	0.619155	0.3304	"e"	"i"	0	1	2	43
"MarkovTaskGamblingJ2"	181	1	0	1	0.684595	0.267095	"e"	"e"	1	1	2	43
"MarkovTaskGamblingJ2"	182	1	1	1	0.45845	0.313915	"e"	"e"	1	1	2	43
"MarkovTaskGamblingJ2"	183	1	1	1	1.176795	0.516825	"e"	"e"	0	0	2	43
"MarkovTaskGamblingJ2"	184	0	0	0	0.33572	0.310315	"i"	"i"	0	1	2	43
"MarkovTaskGamblingJ2"	185	1	0	1	0.31565	0.333695	"i"	"e"	1	1	2	43
"MarkovTaskGamblingJ2"	186	1	1	1	0.385955	0.35218	"i"	"e"	0	1	2	43
"MarkovTaskGamblingJ2"	187	0	0	1	0.750315	0.56678	"e"	"e"	1	1	2	43
"MarkovTaskGamblingJ2"	188	1	1	1	0.632325	0.767845	"e"	"e"	1	1	2	43
"MarkovTaskGamblingJ2"	189	1	1	1	0.397245	0.488325	"e"	"e"	0	0	2	43
"MarkovTaskGamblingJ2"	190	1	0	0	0.453765	0.283345	"e"	"i"	1	1	2	43
"MarkovTaskGamblingJ2"	191	1	1	1	0.448975	0.28134	"e"	"i"	0	1	2	43
"MarkovTaskGamblingJ2"	192	1	0	1	0.61401	0.316045	"e"	"i"	0	0	2	43
"MarkovTaskGamblingJ2"	193	0	0	0	0.149075	0.3927	"i"	"e"	0	1	2	43
"MarkovTaskGamblingJ2"	194	1	0	1	0.25998	0.36861	"i"	"i"	1	1	2	43
"MarkovTaskGamblingJ2"	195	1	1	1	0.399775	0.268775	"i"	"i"	1	1	2	43
"MarkovTaskGamblingJ2"	196	1	1	1	0.32118	0.28171	"i"	"i"	1	1	2	43
"MarkovTaskGamblingJ2"	197	1	1	1	0.506725	0.377385	"i"	"i"	1	0	2	43
"MarkovTaskGamblingJ2"	198	1	1	0	0.400755	0.2674	"i"	"i"	0	1	2	43
"MarkovTaskGamblingJ2"	199	1	0	1	0.499125	0.45158	"i"	"e"	1	0	2	43
"MarkovTaskGamblingJ2"	200	0	1	0	0.659375	0.30148	"e"	"i"	0	0	2	43
"MarkovTaskGamblingJ2"	11	1	1	1	0.595275	0.920805	"i"	"e"	0	0	2	56
"MarkovTaskGamblingJ2"	12	0	0	0	0.74431	0.86181	"e"	"i"	0	0	2	56
"MarkovTaskGamblingJ2"	13	1	0	0	0.389735	0.637125	"e"	"i"	1	0	2	56
"MarkovTaskGamblingJ2"	14	0	1	0	0.54352	0.497625	"i"	"i"	0	1	2	56
"MarkovTaskGamblingJ2"	15	0	0	1	0.41442	0.68385	"e"	"i"	0	0	2	56
"MarkovTaskGamblingJ2"	16	1	0	0	0.47804	0.5625	"e"	"e"	1	1	2	56
"MarkovTaskGamblingJ2"	17	1	1	1	0.97019	0.727	"e"	"i"	0	1	2	56
"MarkovTaskGamblingJ2"	18	1	0	1	0.511335	0.83438	"e"	"i"	1	1	2	56
"MarkovTaskGamblingJ2"	19	0	1	1	1.07627	0.754705	"i"	"e"	1	0	2	56
"MarkovTaskGamblingJ2"	20	1	1	0	0.404835	0.335615	"i"	"i"	0	1	2	56
"MarkovTaskGamblingJ2"	21	1	0	1	0.284425	0.162375	"i"	"i"	1	1	2	56
"MarkovTaskGamblingJ2"	22	0	1	1	0.23551	0.30249	"e"	"i"	1	1	2	56
"MarkovTaskGamblingJ2"	23	1	1	1	0.537565	0.317815	"e"	"e"	1	1	2	56
"MarkovTaskGamblingJ2"	24	1	1	1	0.45905	0.378725	"e"	"e"	1	1	2	56
"MarkovTaskGamblingJ2"	25	1	1	1	0.30891	0.64195	"e"	"i"	1	1	2	56
"MarkovTaskGamblingJ2"	26	1	1	1	0.30948	0.48789	"e"	"e"	1	1	2	56
"MarkovTaskGamblingJ2"	27	1	1	1	0.562485	0.482825	"e"	"i"	1	1	2	56
"MarkovTaskGamblingJ2"	28	1	1	1	0.3611	0.37883	"e"	"e"	1	1	2	56
"MarkovTaskGamblingJ2"	29	1	1	1	0.40214	0.45844	"e"	"e"	0	1	2	56
"MarkovTaskGamblingJ2"	30	0	0	1	0.084675	0.297	"i"	"i"	1	1	2	56
"MarkovTaskGamblingJ2"	31	1	1	1	0.2513	0.345675	"i"	"e"	0	1	2	56
"MarkovTaskGamblingJ2"	32	1	0	1	0.49661	0.35428	"i"	"e"	0	1	2	56
"MarkovTaskGamblingJ2"	33	1	0	1	0.39009	0.31898	"i"	"i"	1	1	2	56
"MarkovTaskGamblingJ2"	34	0	1	1	0.36361	0.28251	"e"	"i"	0	0	2	56
"MarkovTaskGamblingJ2"	35	1	0	0	0.22402	0.712215	"e"	"i"	1	1	2	56
"MarkovTaskGamblingJ2"	36	0	1	1	0.31342	0.436775	"i"	"i"	0	1	2	56
"MarkovTaskGamblingJ2"	37	1	0	1	0.29356	0.2114	"i"	"i"	1	0	2	56
"MarkovTaskGamblingJ2"	38	1	1	0	0.305225	0.611975	"i"	"e"	0	0	2	56
"MarkovTaskGamblingJ2"	39	1	0	0	0.500835	0.405685	"i"	"i"	0	1	2	56
"MarkovTaskGamblingJ2"	40	0	0	1	1.83832	0.26788	"e"	"i"	1	1	2	56
"MarkovTaskGamblingJ2"	41	1	1	1	1.33323	0.429165	"e"	"e"	1	1	2	56
"MarkovTaskGamblingJ2"	42	1	1	1	0.42518	0.599325	"e"	"e"	0	0	2	56
"MarkovTaskGamblingJ2"	43	0	0	0	0.60223	0.67345	"i"	"e"	1	0	2	56
"MarkovTaskGamblingJ2"	44	0	1	0	0.525885	0.35222	"e"	"i"	0	1	2	56
"MarkovTaskGamblingJ2"	45	1	0	1	0.34088	0.431465	"e"	"e"	1	0	2	56
"MarkovTaskGamblingJ2"	46	1	1	0	0.83384	0.505325	"e"	"i"	0	1	2	56
"MarkovTaskGamblingJ2"	47	1	0	1	0.384035	0.57745	"e"	"i"	1	0	2	56
"MarkovTaskGamblingJ2"	48	0	1	0	0.41462	0.532645	"i"	"i"	0	1	2	56
"MarkovTaskGamblingJ2"	49	0	0	1	0.354955	0.34193	"e"	"i"	0	1	2	56
"MarkovTaskGamblingJ2"	50	1	0	1	0.305545	0.53376	"e"	"i"	0	0	2	56
"MarkovTaskGamblingJ2"	51	1	0	0	0.24364	0.56311	"e"	"e"	0	1	2	56
"MarkovTaskGamblingJ2"	52	0	0	1	0.30703	0.451825	"i"	"i"	1	1	2	56
"MarkovTaskGamblingJ2"	53	1	1	1	0.63244	0.43089	"i"	"i"	1	1	2	56
"MarkovTaskGamblingJ2"	54	1	1	1	0.37234	0.40987	"i"	"i"	1	1	2	56
"MarkovTaskGamblingJ2"	55	1	1	1	0.4401	0.35473	"i"	"e"	1	1	2	56
"MarkovTaskGamblingJ2"	56	1	1	1	0.562705	0.530135	"i"	"e"	0	1	2	56
"MarkovTaskGamblingJ2"	57	1	0	1	0.40188	0.41936	"i"	"i"	0	1	2	56
"MarkovTaskGamblingJ2"	58	0	0	1	0.31938	0.30633	"e"	"i"	0	0	2	56
"MarkovTaskGamblingJ2"	59	1	0	0	0.32335	0.423555	"e"	"e"	0	1	2	56
"MarkovTaskGamblingJ2"	60	0	0	1	0.29228	0.33547	"i"	"e"	0	1	2	56
"MarkovTaskGamblingJ2"	61	1	0	1	0.29419	0.262485	"i"	"i"	1	1	2	56
"MarkovTaskGamblingJ2"	62	1	1	1	0.31496	0.612555	"i"	"e"	0	1	2	56
"MarkovTaskGamblingJ2"	63	1	0	1	0.300865	0.213335	"i"	"i"	0	0	2	56
"MarkovTaskGamblingJ2"	64	0	0	0	0.36784	0.44914	"e"	"e"	1	1	2	56
"MarkovTaskGamblingJ2"	65	1	1	1	0.34464	0.49624	"e"	"i"	1	1	2	56
"MarkovTaskGamblingJ2"	66	1	1	1	0.617195	0.638815	"e"	"i"	0	1	2	56
"MarkovTaskGamblingJ2"	67	1	0	1	0.460445	0.457145	"e"	"e"	1	1	2	56
"MarkovTaskGamblingJ2"	68	0	1	1	0.333875	0.736905	"i"	"e"	1	0	2	56
"MarkovTaskGamblingJ2"	69	1	1	0	0.521905	0.37678	"i"	"i"	0	1	2	56
"MarkovTaskGamblingJ2"	70	1	0	1	0.45278	0.397245	"i"	"i"	0	1	2	56
"MarkovTaskGamblingJ2"	71	0	0	1	0.30762	0.30443	"e"	"i"	1	0	2	56
"MarkovTaskGamblingJ2"	72	1	1	0	0.301065	0.471685	"e"	"e"	1	1	2	56
"MarkovTaskGamblingJ2"	73	0	1	1	0.417285	0.34231	"i"	"e"	1	0	2	56
"MarkovTaskGamblingJ2"	74	1	1	0	0.390755	0.347145	"i"	"e"	1	1	2	56
"MarkovTaskGamblingJ2"	75	1	1	1	0.334275	0.240425	"i"	"e"	0	0	2	56
"MarkovTaskGamblingJ2"	76	1	0	0	0.26291	0.209675	"i"	"i"	0	0	2	56
"MarkovTaskGamblingJ2"	77	0	0	0	0.284565	0.675565	"e"	"i"	0	0	2	56
"MarkovTaskGamblingJ2"	78	1	0	0	0.317445	0.409475	"e"	"e"	1	0	2	56
"MarkovTaskGamblingJ2"	79	0	1	0	0.264345	0.31575	"i"	"e"	0	1	2	56
"MarkovTaskGamblingJ2"	80	1	0	1	0.334625	0.334855	"i"	"e"	0	1	2	56
"MarkovTaskGamblingJ2"	81	1	0	1	0.3005	0.216145	"i"	"i"	0	1	2	56
"MarkovTaskGamblingJ2"	82	0	0	1	0.264485	1.0076	"e"	"i"	0	0	2	56
"MarkovTaskGamblingJ2"	83	1	0	0	0.32004	0.46362	"e"	"e"	1	1	2	56
"MarkovTaskGamblingJ2"	84	1	1	1	0.42556	0.6618	"e"	"i"	0	0	2	56
"MarkovTaskGamblingJ2"	85	0	0	0	0.336045	1.051465	"i"	"i"	1	0	2	56
"MarkovTaskGamblingJ2"	86	1	1	0	0.385035	0.31542	"i"	"e"	1	0	2	56
"MarkovTaskGamblingJ2"	87	1	1	0	0.325275	0.400445	"i"	"i"	1	1	2	56
"MarkovTaskGamblingJ2"	88	1	1	1	0.417595	0.32801	"i"	"i"	1	0	2	56
"MarkovTaskGamblingJ2"	89	1	1	0	0.580265	0.752085	"i"	"e"	1	1	2	56
"MarkovTaskGamblingJ2"	90	1	1	1	0.370575	0.607445	"i"	"i"	1	0	2	56
"MarkovTaskGamblingJ2"	91	1	1	0	0.536255	0.298095	"i"	"e"	1	1	2	56
"MarkovTaskGamblingJ2"	92	1	1	1	0.285175	0.308805	"i"	"e"	1	1	2	56
"MarkovTaskGamblingJ2"	93	1	1	1	0.322505	0.36833	"i"	"i"	0	1	2	56
"MarkovTaskGamblingJ2"	94	0	0	1	0.35321	0.453995	"e"	"e"	0	0	2	56
"MarkovTaskGamblingJ2"	95	0	0	0	0.35469	0.287125	"i"	"e"	0	1	2	56
"MarkovTaskGamblingJ2"	96	1	0	1	0.378625	0.400405	"i"	"e"	1	1	2	56
"MarkovTaskGamblingJ2"	97	0	1	1	0.38985	0.34586	"e"	"e"	0	1	2	56
"MarkovTaskGamblingJ2"	98	1	0	1	0.350975	0.37572	"e"	"i"	1	1	2	56
"MarkovTaskGamblingJ2"	99	0	1	1	0.354595	0.31575	"i"	"e"	0	1	2	56
"MarkovTaskGamblingJ2"	100	0	0	1	0.306125	0.481425	"e"	"e"	1	1	2	56
"MarkovTaskGamblingJ2"	101	1	1	1	0.552215	0.435175	"e"	"i"	0	1	2	56
"MarkovTaskGamblingJ2"	102	1	0	1	0.3469	0.24926	"e"	"e"	1	1	2	56
"MarkovTaskGamblingJ2"	103	0	1	1	0.417495	0.344865	"i"	"e"	0	1	2	56
"MarkovTaskGamblingJ2"	104	1	0	1	0.31689	0.283685	"i"	"i"	1	0	2	56
"MarkovTaskGamblingJ2"	105	1	1	0	0.404225	0.263425	"i"	"e"	0	1	2	56
"MarkovTaskGamblingJ2"	106	1	0	1	0.47445	0.131695	"i"	"i"	1	0	2	56
"MarkovTaskGamblingJ2"	107	0	1	0	0.254495	0.40212	"e"	"e"	1	1	2	56
"MarkovTaskGamblingJ2"	108	0	1	1	0.28117	0.141135	"i"	"e"	1	1	2	56
"MarkovTaskGamblingJ2"	109	0	1	1	0.33763	0.066875	"e"	"i"	1	0	2	56
"MarkovTaskGamblingJ2"	110	1	1	0	0.29793	0.41008	"e"	"e"	0	0	2	56
"MarkovTaskGamblingJ2"	111	0	0	0	0.718795	0.168025	"i"	"e"	0	1	2	56
"MarkovTaskGamblingJ2"	112	1	0	1	0.226855	0.200685	"i"	"i"	1	1	2	56
"MarkovTaskGamblingJ2"	113	0	1	1	0.270645	0.255735	"e"	"i"	0	1	2	56
"MarkovTaskGamblingJ2"	114	1	0	1	0.075085	0.28051	"e"	"e"	1	1	2	56
"MarkovTaskGamblingJ2"	115	0	1	1	0.183785	0.13407	"i"	"e"	0	1	2	56
"MarkovTaskGamblingJ2"	116	1	0	1	0.291655	0.107525	"i"	"i"	0	0	2	56
"MarkovTaskGamblingJ2"	117	0	0	0	0.297995	0.24234	"e"	"i"	0	1	2	56
"MarkovTaskGamblingJ2"	118	1	0	1	0.272745	0.22034	"e"	"e"	1	1	2	56
"MarkovTaskGamblingJ2"	119	0	1	1	0.24659	0.38163	"i"	"e"	1	1	2	56
"MarkovTaskGamblingJ2"	120	1	1	1	0.29135	0.26473	"i"	"i"	0	1	2	56
"MarkovTaskGamblingJ2"	121	1	0	1	0.258955	0.270575	"i"	"e"	0	1	2	56
"MarkovTaskGamblingJ2"	122	1	0	1	0.1647	0.30418	"i"	"i"	1	1	2	56
"MarkovTaskGamblingJ2"	123	0	1	1	0.213655	0.265125	"e"	"e"	1	0	2	56
"MarkovTaskGamblingJ2"	124	1	1	0	0.345775	0.262385	"e"	"i"	1	1	2	56
"MarkovTaskGamblingJ2"	125	0	1	1	0.387165	0.35362	"i"	"e"	1	0	2	56
"MarkovTaskGamblingJ2"	126	1	1	0	0.34279	0.31115	"i"	"e"	0	1	2	56
"MarkovTaskGamblingJ2"	127	1	0	1	0.259435	0.344645	"i"	"e"	0	1	2	56
"MarkovTaskGamblingJ2"	128	1	0	1	0.236725	0.35289	"i"	"i"	0	1	2	56
"MarkovTaskGamblingJ2"	129	0	0	1	0.21991	0.26373	"e"	"e"	0	1	2	56
"MarkovTaskGamblingJ2"	130	0	0	1	0.263105	0.2798	"i"	"e"	0	1	2	56
"MarkovTaskGamblingJ2"	131	1	0	1	0.312025	0.36341	"i"	"i"	0	0	2	56
"MarkovTaskGamblingJ2"	132	0	0	0	0.43965	0.617575	"e"	"i"	1	0	2	56
"MarkovTaskGamblingJ2"	133	1	1	0	0.30195	0.237875	"e"	"e"	1	0	2	56
"MarkovTaskGamblingJ2"	134	1	1	0	0.425495	0.59268	"e"	"e"	0	1	2	56
"MarkovTaskGamblingJ2"	135	1	0	1	0.14343	0.77922	"e"	"i"	1	0	2	56
"MarkovTaskGamblingJ2"	136	1	1	0	0.74467	0.56741	"e"	"i"	1	0	2	56
"MarkovTaskGamblingJ2"	137	0	1	0	0.267835	0.43889	"i"	"i"	0	1	2	56
"MarkovTaskGamblingJ2"	138	1	0	1	0.410305	0.70768	"i"	"e"	1	1	2	56
"MarkovTaskGamblingJ2"	139	1	1	1	0.413875	0.66125	"i"	"e"	1	0	2	56
"MarkovTaskGamblingJ2"	140	1	1	0	0.529465	0.24669	"i"	"e"	0	0	2	56
"MarkovTaskGamblingJ2"	141	1	0	0	0.650625	0.223665	"i"	"i"	0	1	2	56
"MarkovTaskGamblingJ2"	142	0	0	1	0.53482	0.21179	"e"	"e"	1	1	2	56
"MarkovTaskGamblingJ2"	143	1	1	1	0.341735	0.46589	"e"	"e"	0	1	2	56
"MarkovTaskGamblingJ2"	144	0	0	1	0.40642	0.36161	"i"	"e"	1	1	2	56
"MarkovTaskGamblingJ2"	145	1	1	1	0.301695	0.38488	"i"	"e"	1	0	2	56
"MarkovTaskGamblingJ2"	146	0	1	0	0.274815	0.254055	"e"	"i"	0	1	2	56
"MarkovTaskGamblingJ2"	147	1	0	1	0.134595	0.25606	"e"	"e"	1	0	2	56
"MarkovTaskGamblingJ2"	148	1	1	0	0.102285	0.496605	"e"	"e"	0	0	2	56
"MarkovTaskGamblingJ2"	149	0	0	0	0.32442	0.303305	"i"	"e"	0	1	2	56
"MarkovTaskGamblingJ2"	150	0	0	1	0.41763	0.319165	"e"	"e"	0	1	2	56
"MarkovTaskGamblingJ2"	151	0	0	1	0.229255	0.27401	"i"	"e"	0	1	2	56
"MarkovTaskGamblingJ2"	152	0	0	1	0.37207	0.66181	"e"	"e"	1	1	2	56
"MarkovTaskGamblingJ2"	153	1	1	1	0.488025	0.582925	"e"	"e"	1	1	2	56
"MarkovTaskGamblingJ2"	154	1	1	1	0.27993	0.446065	"e"	"i"	1	1	2	56
"MarkovTaskGamblingJ2"	155	1	1	1	0.634035	0.653915	"e"	"i"	0	0	2	56
"MarkovTaskGamblingJ2"	156	1	0	0	0.359815	0.97841	"e"	"e"	0	0	2	56
"MarkovTaskGamblingJ2"	157	1	0	0	0.722365	0.37127	"e"	"i"	1	0	2	56
"MarkovTaskGamblingJ2"	158	0	1	0	0.40245	0.36164	"i"	"i"	0	1	2	56
"MarkovTaskGamblingJ2"	159	1	0	1	0.508385	0.83287	"i"	"e"	0	0	2	56
"MarkovTaskGamblingJ2"	160	1	0	0	0.486375	0.49297	"i"	"i"	1	1	2	56
"MarkovTaskGamblingJ2"	161	1	1	1	0.360015	0.515825	"i"	"i"	0	1	2	56
"MarkovTaskGamblingJ2"	162	0	0	1	0.517905	0.336725	"e"	"i"	1	0	2	56
"MarkovTaskGamblingJ2"	163	1	1	0	0.549635	0.46276	"e"	"i"	0	0	2	56
"MarkovTaskGamblingJ2"	164	1	0	0	0.48835	0.34719	"e"	"i"	0	0	2	56
"MarkovTaskGamblingJ2"	165	0	0	0	0.362805	0.370935	"i"	"e"	1	1	2	56
"MarkovTaskGamblingJ2"	166	1	1	1	0.650815	0.24284	"i"	"e"	0	1	2	56
"MarkovTaskGamblingJ2"	167	1	0	1	0.3676	0.312355	"i"	"i"	1	0	2	56
"MarkovTaskGamblingJ2"	168	1	1	0	0.553755	0.551075	"i"	"i"	1	1	2	56
"MarkovTaskGamblingJ2"	169	0	1	1	0.407745	0.368845	"e"	"e"	1	1	2	56
"MarkovTaskGamblingJ2"	170	1	1	1	0.39755	0.245875	"e"	"i"	0	0	2	56
"MarkovTaskGamblingJ2"	171	1	0	0	0.46779	0.27781	"e"	"e"	1	0	2	56
"MarkovTaskGamblingJ2"	172	1	1	0	0.268645	0.203835	"e"	"e"	1	0	2	56
"MarkovTaskGamblingJ2"	173	0	1	0	0.48397	0.61748	"i"	"e"	1	0	2	56
"MarkovTaskGamblingJ2"	174	1	1	0	0.3345	0.467375	"i"	"i"	0	0	2	56
"MarkovTaskGamblingJ2"	175	1	0	0	0.387665	0.203595	"i"	"e"	1	0	2	56
"MarkovTaskGamblingJ2"	176	1	1	0	0.31409	0.239475	"i"	"e"	0	1	2	56
"MarkovTaskGamblingJ2"	177	1	0	1	0.468945	0.217935	"i"	"i"	1	0	2	56
"MarkovTaskGamblingJ2"	178	1	1	0	0.59179	0.39739	"i"	"e"	1	0	2	56
"MarkovTaskGamblingJ2"	179	0	1	0	0.40796	0.32186	"e"	"i"	1	0	2	56
"MarkovTaskGamblingJ2"	180	1	1	0	0.427425	0.26158	"e"	"i"	1	1	2	56
"MarkovTaskGamblingJ2"	181	1	1	1	0.35105	0.271985	"e"	"e"	0	0	2	56
"MarkovTaskGamblingJ2"	182	1	0	0	0.572065	0.293695	"e"	"i"	0	0	2	56
"MarkovTaskGamblingJ2"	183	1	0	0	0.291685	0.215545	"e"	"e"	0	1	2	56
"MarkovTaskGamblingJ2"	184	1	0	1	0.386155	0.58409	"e"	"i"	1	1	2	56
"MarkovTaskGamblingJ2"	185	1	1	1	0.32686	0.69595	"e"	"i"	0	1	2	56
"MarkovTaskGamblingJ2"	186	1	0	1	0.26721	0.41876	"e"	"e"	1	0	2	56
"MarkovTaskGamblingJ2"	187	0	1	0	0.545785	0.703805	"i"	"i"	0	1	2	56
"MarkovTaskGamblingJ2"	188	1	0	1	0.38501	0.257965	"i"	"e"	0	0	2	56
"MarkovTaskGamblingJ2"	189	0	0	0	0.24856	0.38673	"e"	"e"	1	1	2	56
"MarkovTaskGamblingJ2"	190	1	1	1	0.424525	0.372565	"e"	"i"	1	1	2	56
"MarkovTaskGamblingJ2"	191	0	1	1	0.32483	0.328975	"i"	"e"	0	1	2	56
"MarkovTaskGamblingJ2"	192	1	0	1	0.41054	0.18909	"i"	"i"	1	0	2	56
"MarkovTaskGamblingJ2"	193	0	1	0	0.28487	0.482135	"e"	"i"	0	1	2	56
"MarkovTaskGamblingJ2"	194	1	0	1	0.46207	0.292175	"e"	"e"	1	1	2	56
"MarkovTaskGamblingJ2"	195	0	1	1	0.286435	0.451885	"i"	"e"	0	1	2	56
"MarkovTaskGamblingJ2"	196	1	0	1	0.200555	0.270545	"i"	"i"	0	1	2	56
"MarkovTaskGamblingJ2"	197	0	0	1	0.27759	0.379005	"e"	"i"	0	0	2	56
"MarkovTaskGamblingJ2"	198	1	0	0	0.485685	0.7311	"e"	"e"	0	1	2	56
"MarkovTaskGamblingJ2"	199	0	0	1	0.18012	0.48998	"i"	"i"	0	1	2	56
"MarkovTaskGamblingJ2"	200	1	0	1	0.38639	0.731205	"i"	"e"	1	0	2	56
"MarkovTaskGamblingJ2"	11	0	1	1	0.439	1.04	"i"	"e"	1	1	2	54
"MarkovTaskGamblingJ2"	12	1	1	1	0.585	0.811	"i"	"e"	0	1	2	54
"MarkovTaskGamblingJ2"	13	1	0	1	0.542	0.746	"i"	"e"	1	1	2	54
"MarkovTaskGamblingJ2"	14	1	1	1	0.423	0.68	"i"	"i"	0	1	2	54
"MarkovTaskGamblingJ2"	15	1	0	1	0.439	0.535	"i"	"e"	1	1	2	54
"MarkovTaskGamblingJ2"	16	1	1	1	0.462	0.653	"i"	"i"	0	1	2	54
"MarkovTaskGamblingJ2"	17	1	0	1	0.477	0.692	"i"	"e"	0	0	2	54
"MarkovTaskGamblingJ2"	18	0	0	0	0.579	0.567	"e"	"e"	1	1	2	54
"MarkovTaskGamblingJ2"	19	1	1	1	0.451	0.452	"e"	"e"	1	1	2	54
"MarkovTaskGamblingJ2"	20	1	1	1	0.506	0.544	"e"	"e"	1	1	2	54
"MarkovTaskGamblingJ2"	22	1	1	1	0.63	0.624	"e"	"e"	1	1	2	54
"MarkovTaskGamblingJ2"	23	1	1	1	0.242	0.706	"e"	"e"	1	1	2	54
"MarkovTaskGamblingJ2"	24	1	1	1	0.128	0.862	"e"	"e"	1	1	2	54
"MarkovTaskGamblingJ2"	25	1	1	1	0.813	0.84	"e"	"e"	0	1	2	54
"MarkovTaskGamblingJ2"	27	0	1	1	1.102	1.003	"e"	"e"	0	1	2	54
"MarkovTaskGamblingJ2"	28	1	0	1	0.741	0.868	"e"	"e"	1	1	2	54
"MarkovTaskGamblingJ2"	30	1	0	0	0.861	0.734	"e"	"e"	1	1	2	54
"MarkovTaskGamblingJ2"	31	1	1	1	0.01	0.718	"e"	"e"	1	1	2	54
"MarkovTaskGamblingJ2"	32	0	1	1	1.337	1.151	"i"	"e"	1	0	2	54
"MarkovTaskGamblingJ2"	33	0	1	0	1.008	0.73	"e"	"e"	0	1	2	54
"MarkovTaskGamblingJ2"	35	1	1	1	1.03	1.062	"e"	"e"	0	1	2	54
"MarkovTaskGamblingJ2"	36	0	0	1	1.008	1.503	"i"	"e"	0	1	2	54
"MarkovTaskGamblingJ2"	38	1	1	1	1.51	0.748	"e"	"e"	1	1	2	54
"MarkovTaskGamblingJ2"	39	1	1	1	0.078	0.617	"e"	"e"	0	1	2	54
"MarkovTaskGamblingJ2"	41	0	0	1	0.463	0.455	"e"	"e"	0	1	2	54
"MarkovTaskGamblingJ2"	42	1	0	1	0.585	0.491	"e"	"e"	1	1	2	54
"MarkovTaskGamblingJ2"	44	1	1	1	0.018	0.624	"e"	"e"	1	1	2	54
"MarkovTaskGamblingJ2"	45	1	1	1	0.898	1.201	"e"	"e"	1	1	2	54
"MarkovTaskGamblingJ2"	46	0	1	1	0.554	1.935	"i"	"e"	0	1	2	54
"MarkovTaskGamblingJ2"	47	0	0	1	0.936	0.686	"e"	"e"	0	1	2	54
"MarkovTaskGamblingJ2"	49	1	0	0	0.488	0.511	"e"	"i"	1	0	2	54
"MarkovTaskGamblingJ2"	50	0	1	0	1.124	0.468	"i"	"e"	1	1	2	54
"MarkovTaskGamblingJ2"	51	1	1	1	0.905	0.43	"i"	"e"	0	1	2	54
"MarkovTaskGamblingJ2"	52	0	0	1	1.272	0.418	"e"	"e"	1	1	2	54
"MarkovTaskGamblingJ2"	54	1	0	1	0.255	0.718	"e"	"e"	0	1	2	54
"MarkovTaskGamblingJ2"	55	1	0	1	0.428	0.718	"e"	"e"	1	1	2	54
"MarkovTaskGamblingJ2"	56	1	1	1	0.891	0.722	"e"	"e"	0	1	2	54
"MarkovTaskGamblingJ2"	57	1	0	1	0.2	0.936	"e"	"e"	1	1	2	54
"MarkovTaskGamblingJ2"	58	1	1	1	0.637	1.132	"e"	"e"	0	1	2	54
"MarkovTaskGamblingJ2"	59	0	0	1	1.13	0.678	"i"	"e"	0	1	2	54
"MarkovTaskGamblingJ2"	61	1	0	0	0.538	0.617	"e"	"e"	1	1	2	54
"MarkovTaskGamblingJ2"	62	1	1	1	0.768	1.179	"e"	"e"	0	1	2	54
"MarkovTaskGamblingJ2"	63	0	0	1	0.984	0.657	"i"	"e"	1	1	2	54
"MarkovTaskGamblingJ2"	64	1	1	1	0.345	0.813	"i"	"e"	0	1	2	54
"MarkovTaskGamblingJ2"	65	0	0	1	0.376	0.907	"e"	"e"	1	1	2	54
"MarkovTaskGamblingJ2"	67	1	1	1	1.293	0.644	"e"	"e"	0	1	2	54
"MarkovTaskGamblingJ2"	69	1	1	1	0.585	0.634	"e"	"e"	1	1	2	54
"MarkovTaskGamblingJ2"	70	1	1	1	0.411	0.757	"e"	"e"	1	0	2	54
"MarkovTaskGamblingJ2"	71	0	1	0	1.857	0.424	"i"	"e"	1	1	2	54
"MarkovTaskGamblingJ2"	73	1	0	1	0.82	0.877	"e"	"e"	0	0	2	54
"MarkovTaskGamblingJ2"	75	1	1	0	0.707	1.264	"e"	"e"	1	1	2	54
"MarkovTaskGamblingJ2"	78	1	0	1	0.484	0.551	"e"	"e"	1	0	2	54
"MarkovTaskGamblingJ2"	79	1	1	0	1.356	0.679	"e"	"i"	1	0	2	54
"MarkovTaskGamblingJ2"	80	1	1	0	0.344	0.444	"e"	"e"	1	1	2	54
"MarkovTaskGamblingJ2"	82	1	1	1	0.675	1.427	"e"	"i"	1	0	2	54
"MarkovTaskGamblingJ2"	83	1	1	0	0.578	0.525	"e"	"e"	1	1	2	54
"MarkovTaskGamblingJ2"	84	1	1	1	0.604	0.741	"e"	"e"	1	1	2	54
"MarkovTaskGamblingJ2"	85	1	1	1	0.811	1.251	"e"	"e"	0	1	2	54
"MarkovTaskGamblingJ2"	87	0	1	1	1.149	0.888	"e"	"e"	0	1	2	54
"MarkovTaskGamblingJ2"	88	1	0	1	0.352	0.701	"e"	"e"	0	1	2	54
"MarkovTaskGamblingJ2"	89	1	0	1	1.105	0.743	"e"	"e"	0	1	2	54
"MarkovTaskGamblingJ2"	91	1	0	1	0.094	0.453	"i"	"e"	1	1	2	54
"MarkovTaskGamblingJ2"	97	0	1	1	1.046	0.821	"i"	"e"	1	0	2	54
"MarkovTaskGamblingJ2"	98	0	1	0	0.454	0.503	"e"	"e"	0	1	2	54
"MarkovTaskGamblingJ2"	100	0	0	1	0.917	1.058	"i"	"e"	1	1	2	54
"MarkovTaskGamblingJ2"	101	0	1	1	0.067	0.536	"e"	"e"	1	1	2	54
"MarkovTaskGamblingJ2"	102	1	1	1	1.661	0.653	"e"	"e"	1	1	2	54
"MarkovTaskGamblingJ2"	104	1	1	1	0.892	0.517	"e"	"e"	1	1	2	54
"MarkovTaskGamblingJ2"	105	0	1	1	0.576	0.379	"i"	"e"	0	1	2	54
"MarkovTaskGamblingJ2"	106	1	0	1	0.791	0.512	"i"	"i"	1	1	2	54
"MarkovTaskGamblingJ2"	107	0	1	1	1.174	1.577	"e"	"e"	1	1	2	54
"MarkovTaskGamblingJ2"	109	1	1	1	0.659	0.788	"e"	"i"	1	0	2	54
"MarkovTaskGamblingJ2"	110	0	1	0	0.406	0.408	"i"	"e"	0	1	2	54
"MarkovTaskGamblingJ2"	112	1	0	1	0.512	0.4	"e"	"e"	1	0	2	54
"MarkovTaskGamblingJ2"	113	0	1	0	0.456	0.434	"i"	"e"	1	0	2	54
"MarkovTaskGamblingJ2"	114	0	1	0	0.473	0.481	"e"	"e"	1	1	2	54
"MarkovTaskGamblingJ2"	116	1	0	0	0.419	0.476	"e"	"e"	1	1	2	54
"MarkovTaskGamblingJ2"	117	1	1	1	1.587	0.444	"e"	"e"	1	1	2	54
"MarkovTaskGamblingJ2"	118	1	1	1	1.92	1.145	"e"	"i"	0	0	2	54
"MarkovTaskGamblingJ2"	119	0	0	0	0.87	1.167	"i"	"e"	1	0	2	54
"MarkovTaskGamblingJ2"	120	0	1	0	1.791	0.393	"e"	"e"	0	1	2	54
"MarkovTaskGamblingJ2"	123	1	0	1	1.239	1.585	"e"	"i"	0	0	2	54
"MarkovTaskGamblingJ2"	125	1	1	1	0.713	0.944	"e"	"e"	0	1	2	54
"MarkovTaskGamblingJ2"	126	0	0	1	1.235	0.956	"i"	"e"	1	0	2	54
"MarkovTaskGamblingJ2"	127	0	1	0	0.72	1.205	"e"	"e"	0	1	2	54
"MarkovTaskGamblingJ2"	128	1	0	1	0.801	0.768	"e"	"e"	1	1	2	54
"MarkovTaskGamblingJ2"	131	0	0	1	1.979	0.412	"i"	"e"	0	1	2	54
"MarkovTaskGamblingJ2"	132	0	0	1	0.434	1.705	"e"	"e"	1	0	2	54
"MarkovTaskGamblingJ2"	133	1	1	0	1.135	0.593	"e"	"e"	1	1	2	54
"MarkovTaskGamblingJ2"	136	1	1	1	0.512	0.447	"e"	"e"	0	1	2	54
"MarkovTaskGamblingJ2"	137	0	0	1	0.504	0.454	"i"	"e"	1	0	2	54
"MarkovTaskGamblingJ2"	138	1	1	0	0.478	0.404	"i"	"e"	1	1	2	54
"MarkovTaskGamblingJ2"	139	0	1	1	0.435	0.488	"e"	"e"	0	1	2	54
"MarkovTaskGamblingJ2"	140	1	0	1	0.432	0.697	"e"	"e"	1	1	2	54
"MarkovTaskGamblingJ2"	141	0	1	1	0.44	0.928	"i"	"e"	0	0	2	54
"MarkovTaskGamblingJ2"	142	1	0	0	0.476	0.5	"i"	"e"	0	1	2	54
"MarkovTaskGamblingJ2"	143	0	0	1	0.387	0.508	"e"	"i"	0	1	2	54
"MarkovTaskGamblingJ2"	144	1	0	1	0.372	0.423	"e"	"e"	0	1	2	54
"MarkovTaskGamblingJ2"	145	1	0	1	0.481	1.246	"e"	"i"	0	0	2	54
"MarkovTaskGamblingJ2"	146	1	0	0	0.055	0.344	"e"	"e"	1	1	2	54
"MarkovTaskGamblingJ2"	147	1	1	1	0.406	0.384	"e"	"e"	1	1	2	54
"MarkovTaskGamblingJ2"	148	1	1	1	0.37	0.422	"e"	"e"	0	1	2	54
"MarkovTaskGamblingJ2"	149	0	0	1	0.464	0.751	"i"	"e"	1	1	2	54
"MarkovTaskGamblingJ2"	150	1	1	1	0.436	0.459	"i"	"e"	0	1	2	54
"MarkovTaskGamblingJ2"	151	1	0	1	0.381	0.551	"i"	"e"	1	0	2	54
"MarkovTaskGamblingJ2"	152	1	1	0	0.468	0.395	"i"	"e"	0	1	2	54
"MarkovTaskGamblingJ2"	153	1	0	1	0.309	0.451	"i"	"e"	1	1	2	54
"MarkovTaskGamblingJ2"	154	0	1	1	0.381	0.4	"e"	"e"	1	1	2	54
"MarkovTaskGamblingJ2"	155	1	1	1	0.402	0.756	"e"	"i"	0	0	2	54
"MarkovTaskGamblingJ2"	156	1	0	0	0.44	0.456	"e"	"e"	1	1	2	54
"MarkovTaskGamblingJ2"	157	1	1	1	0.33	1.334	"e"	"e"	0	0	2	54
"MarkovTaskGamblingJ2"	158	1	0	0	0.387	0.598	"e"	"e"	0	1	2	54
"MarkovTaskGamblingJ2"	159	0	0	1	0.311	0.454	"i"	"e"	1	1	2	54
"MarkovTaskGamblingJ2"	160	0	1	1	0.454	0.943	"e"	"e"	1	1	2	54
"MarkovTaskGamblingJ2"	161	0	1	1	0.348	0.634	"i"	"e"	0	0	2	54
"MarkovTaskGamblingJ2"	162	1	0	0	0.424	0.474	"i"	"e"	1	0	2	54
"MarkovTaskGamblingJ2"	163	1	1	0	0.424	0.318	"i"	"e"	1	1	2	54
"MarkovTaskGamblingJ2"	164	0	1	1	0.392	0.363	"e"	"e"	1	1	2	54
"MarkovTaskGamblingJ2"	165	1	1	1	0.568	0.378	"e"	"e"	0	1	2	54
"MarkovTaskGamblingJ2"	166	1	0	1	0.326	0.419	"e"	"e"	1	1	2	54
"MarkovTaskGamblingJ2"	167	1	1	1	0.334	1.106	"e"	"e"	1	0	2	54
"MarkovTaskGamblingJ2"	168	0	1	0	0.648	0.472	"i"	"e"	0	1	2	54
"MarkovTaskGamblingJ2"	169	0	0	1	0.402	0.371	"e"	"e"	1	0	2	54
"MarkovTaskGamblingJ2"	170	1	1	0	0.591	0.48	"e"	"e"	0	1	2	54
"MarkovTaskGamblingJ2"	171	1	0	1	0.496	0.477	"e"	"e"	0	1	2	54
"MarkovTaskGamblingJ2"	172	1	0	1	0.431	0.408	"e"	"e"	0	1	2	54
"MarkovTaskGamblingJ2"	173	1	0	1	0.329	0.302	"e"	"e"	0	1	2	54
"MarkovTaskGamblingJ2"	174	1	0	1	0.334	0.322	"e"	"e"	1	1	2	54
"MarkovTaskGamblingJ2"	175	0	1	1	0.496	0.478	"i"	"e"	1	0	2	54
"MarkovTaskGamblingJ2"	176	1	1	0	0.511	0.54	"i"	"e"	1	0	2	54
"MarkovTaskGamblingJ2"	177	1	1	0	0.384	0.324	"i"	"e"	1	1	2	54
"MarkovTaskGamblingJ2"	178	0	1	1	0.418	0.362	"e"	"e"	0	1	2	54
"MarkovTaskGamblingJ2"	179	1	0	1	1.087	0.453	"e"	"e"	1	1	2	54
"MarkovTaskGamblingJ2"	180	1	1	1	0.87	0.396	"e"	"e"	1	1	2	54
"MarkovTaskGamblingJ2"	181	1	1	1	1.008	0.377	"e"	"e"	1	0	2	54
"MarkovTaskGamblingJ2"	184	1	0	1	1.335	0.404	"i"	"e"	1	1	2	54
"MarkovTaskGamblingJ2"	185	1	1	1	0.845	0.42	"i"	"e"	0	1	2	54
"MarkovTaskGamblingJ2"	186	0	0	1	0.455	0.461	"e"	"e"	1	1	2	54
"MarkovTaskGamblingJ2"	187	1	1	1	0.654	0.541	"e"	"e"	1	0	2	54
"MarkovTaskGamblingJ2"	188	1	1	0	0.402	0.556	"e"	"e"	0	0	2	54
"MarkovTaskGamblingJ2"	189	1	0	0	0.296	0.559	"e"	"i"	0	0	2	54
"MarkovTaskGamblingJ2"	190	1	0	0	0.468	0.586	"e"	"e"	1	1	2	54
"MarkovTaskGamblingJ2"	193	0	1	0	0.585	1.33	"i"	"e"	0	0	2	54
"MarkovTaskGamblingJ2"	194	0	0	0	1.239	0.79	"e"	"e"	1	1	2	54
"MarkovTaskGamblingJ2"	195	1	1	1	0.905	1.287	"e"	"e"	1	0	2	54
"MarkovTaskGamblingJ2"	196	0	1	0	0.789	1.264	"i"	"e"	1	1	2	54
"MarkovTaskGamblingJ2"	198	1	1	1	0.753	1.284	"e"	"i"	1	0	2	54
"MarkovTaskGamblingJ2"	200	1	1	1	0.602	0.691	"e"	"e"	1	1	2	54
"MarkovTaskGamblingJ2"	11	1	0	1	0.07423	0.365375	"e"	"e"	0	1	2	48
"MarkovTaskGamblingJ2"	12	1	0	1	0.056215	0.581325	"e"	"i"	0	0	2	48
"MarkovTaskGamblingJ2"	13	0	0	0	0.127005	0.538455	"i"	"i"	1	1	2	48
"MarkovTaskGamblingJ2"	14	1	1	1	0.283595	0.581425	"i"	"e"	0	0	2	48
"MarkovTaskGamblingJ2"	15	0	0	0	0.16923	0.466	"e"	"e"	1	1	2	48
"MarkovTaskGamblingJ2"	16	1	1	1	0.13358	0.465395	"e"	"e"	1	1	2	48
"MarkovTaskGamblingJ2"	17	1	1	1	0.21779	0.50453	"e"	"e"	0	1	2	48
"MarkovTaskGamblingJ2"	18	1	0	1	0.199715	0.324495	"e"	"e"	0	0	2	48
"MarkovTaskGamblingJ2"	19	1	0	0	0.200245	0.381695	"e"	"e"	0	1	2	48
"MarkovTaskGamblingJ2"	20	1	0	1	0.22499	0.471235	"e"	"e"	1	1	2	48
"MarkovTaskGamblingJ2"	21	1	1	1	0.083485	0.416195	"e"	"e"	1	1	2	48
"MarkovTaskGamblingJ2"	22	1	1	1	0.307395	0.650205	"e"	"e"	1	1	2	48
"MarkovTaskGamblingJ2"	23	1	1	1	0.16753	0.681165	"e"	"e"	0	0	2	48
"MarkovTaskGamblingJ2"	24	1	0	0	0.08379	0.366505	"e"	"e"	1	1	2	48
"MarkovTaskGamblingJ2"	25	1	1	1	0.285595	0.449055	"e"	"e"	0	1	2	48
"MarkovTaskGamblingJ2"	26	1	0	1	0.27613	0.45597	"e"	"e"	1	1	2	48
"MarkovTaskGamblingJ2"	27	1	1	1	0.328875	0.524285	"e"	"e"	0	1	2	48
"MarkovTaskGamblingJ2"	28	1	0	1	0.15021	0.431825	"e"	"e"	1	0	2	48
"MarkovTaskGamblingJ2"	29	1	1	0	0.324435	0.41264	"e"	"e"	1	1	2	48
"MarkovTaskGamblingJ2"	30	1	1	1	0.283555	0.500345	"e"	"e"	0	0	2	48
"MarkovTaskGamblingJ2"	31	1	0	0	0.137455	0.448535	"e"	"e"	1	1	2	48
"MarkovTaskGamblingJ2"	32	1	1	1	0.158525	0.487335	"e"	"e"	1	0	2	48
"MarkovTaskGamblingJ2"	33	1	1	0	0.133755	0.447425	"e"	"e"	1	1	2	48
"MarkovTaskGamblingJ2"	34	1	1	1	0.18509	0.350055	"e"	"e"	0	1	2	48
"MarkovTaskGamblingJ2"	35	1	0	1	0.292315	0.399095	"e"	"e"	1	0	2	48
"MarkovTaskGamblingJ2"	36	1	1	0	0.22572	0.44797	"e"	"e"	0	0	2	48
"MarkovTaskGamblingJ2"	37	1	0	0	0.22165	0.497725	"e"	"e"	0	0	2	48
"MarkovTaskGamblingJ2"	38	1	0	0	0.050405	0.440435	"e"	"e"	1	1	2	48
"MarkovTaskGamblingJ2"	39	1	1	1	0.25715	0.613905	"e"	"e"	1	0	2	48
"MarkovTaskGamblingJ2"	40	1	1	0	0.27001	0.469675	"e"	"e"	1	1	2	48
"MarkovTaskGamblingJ2"	41	1	1	1	0.268435	0.489685	"e"	"e"	1	1	2	48
"MarkovTaskGamblingJ2"	42	1	1	1	0.30185	0.503105	"e"	"e"	0	1	2	48
"MarkovTaskGamblingJ2"	43	1	0	1	0.035285	0.517205	"e"	"e"	1	1	2	48
"MarkovTaskGamblingJ2"	44	1	1	1	0.32338	0.431685	"e"	"e"	1	1	2	48
"MarkovTaskGamblingJ2"	45	1	1	1	0.12527	0.46639	"e"	"e"	0	1	2	48
"MarkovTaskGamblingJ2"	46	1	0	1	0.284735	0.44876	"e"	"e"	1	1	2	48
"MarkovTaskGamblingJ2"	47	1	1	1	0.300725	0.38411	"e"	"e"	0	0	2	48
"MarkovTaskGamblingJ2"	48	1	0	0	0.39364	0.464205	"e"	"e"	1	1	2	48
"MarkovTaskGamblingJ2"	49	1	1	1	0.3838	0.316765	"e"	"e"	1	1	2	48
"MarkovTaskGamblingJ2"	50	1	1	1	0.2572	0.42251	"e"	"e"	0	1	2	48
"MarkovTaskGamblingJ2"	51	1	0	1	0.290295	0.713255	"e"	"e"	1	1	2	48
"MarkovTaskGamblingJ2"	52	1	1	1	0.283845	0.48199	"e"	"e"	0	1	2	48
"MarkovTaskGamblingJ2"	53	1	0	1	0.508405	0.598155	"e"	"e"	1	0	2	48
"MarkovTaskGamblingJ2"	54	1	1	0	0.20609	0.55741	"e"	"e"	1	1	2	48
"MarkovTaskGamblingJ2"	55	1	1	1	0.252095	0.563595	"e"	"e"	0	1	2	48
"MarkovTaskGamblingJ2"	56	1	0	1	0.283345	0.42074	"e"	"e"	1	1	2	48
"MarkovTaskGamblingJ2"	57	1	1	1	0.436915	0.691335	"e"	"e"	0	1	2	48
"MarkovTaskGamblingJ2"	58	1	0	1	0.46791	0.515265	"e"	"e"	0	1	2	48
"MarkovTaskGamblingJ2"	59	1	0	1	0.50084	0.51445	"e"	"e"	0	0	2	48
"MarkovTaskGamblingJ2"	60	1	0	0	0.35117	0.56513	"e"	"e"	1	1	2	48
"MarkovTaskGamblingJ2"	61	1	1	1	0.55018	0.61547	"e"	"e"	0	1	2	48
"MarkovTaskGamblingJ2"	62	1	0	1	0.133005	0.54855	"e"	"e"	1	1	2	48
"MarkovTaskGamblingJ2"	63	1	1	1	0.085925	0.502945	"e"	"e"	1	1	2	48
"MarkovTaskGamblingJ2"	64	1	1	1	0.26762	0.52204	"e"	"e"	0	1	2	48
"MarkovTaskGamblingJ2"	65	1	0	1	0.26719	0.81339	"e"	"e"	1	1	2	48
"MarkovTaskGamblingJ2"	66	1	1	1	0.306685	0.365115	"e"	"e"	1	1	2	48
"MarkovTaskGamblingJ2"	67	1	1	1	0.25692	0.645455	"e"	"e"	0	1	2	48
"MarkovTaskGamblingJ2"	68	1	0	1	0.286615	0.64967	"e"	"e"	0	0	2	48
"MarkovTaskGamblingJ2"	69	1	0	0	0.30005	0.58136	"e"	"e"	1	1	2	48
"MarkovTaskGamblingJ2"	70	1	1	1	0.28341	0.89052	"e"	"e"	0	1	2	48
"MarkovTaskGamblingJ2"	71	1	0	1	0.300905	0.61878	"e"	"e"	1	1	2	48
"MarkovTaskGamblingJ2"	72	1	1	1	0.417915	0.63079	"e"	"e"	0	1	2	48
"MarkovTaskGamblingJ2"	73	1	0	1	0.28386	0.569855	"e"	"e"	0	0	2	48
"MarkovTaskGamblingJ2"	74	1	0	0	0.233265	0.596645	"e"	"e"	1	1	2	48
"MarkovTaskGamblingJ2"	75	1	1	1	0.24233	0.515705	"e"	"i"	1	0	2	48
"MarkovTaskGamblingJ2"	76	1	1	0	0.28386	0.532625	"e"	"i"	0	0	2	48
"MarkovTaskGamblingJ2"	77	1	0	0	0.273165	0.52133	"e"	"e"	0	1	2	48
"MarkovTaskGamblingJ2"	78	1	0	1	0.13446	0.415535	"e"	"e"	0	1	2	48
"MarkovTaskGamblingJ2"	79	1	0	1	0.215715	0.56977	"e"	"e"	1	1	2	48
"MarkovTaskGamblingJ2"	80	1	1	1	0.24249	0.51633	"e"	"i"	0	1	2	48
"MarkovTaskGamblingJ2"	81	1	0	1	0.10197	0.499745	"e"	"i"	0	1	2	48
"MarkovTaskGamblingJ2"	82	1	0	1	0.386605	0.58144	"e"	"i"	1	0	2	48
"MarkovTaskGamblingJ2"	83	1	1	0	0.385135	0.582505	"e"	"i"	1	1	2	48
"MarkovTaskGamblingJ2"	84	1	1	1	0.46658	0.61904	"e"	"e"	1	1	2	48
"MarkovTaskGamblingJ2"	85	1	1	1	0.433955	0.73242	"e"	"e"	1	0	2	48
"MarkovTaskGamblingJ2"	86	1	1	0	0.306425	0.5807	"e"	"e"	0	0	2	48
"MarkovTaskGamblingJ2"	87	1	0	0	0.32417	0.43156	"e"	"i"	1	1	2	48
"MarkovTaskGamblingJ2"	88	0	1	1	0.33883	0.62146	"i"	"i"	0	1	2	48
"MarkovTaskGamblingJ2"	89	0	0	1	0.352735	0.44688	"e"	"i"	1	1	2	48
"MarkovTaskGamblingJ2"	90	1	1	1	0.325625	0.74274	"e"	"i"	1	1	2	48
"MarkovTaskGamblingJ2"	91	0	1	1	0.316425	0.65815	"i"	"e"	0	1	2	48
"MarkovTaskGamblingJ2"	92	1	0	1	0.277475	0.685825	"i"	"e"	1	1	2	48
"MarkovTaskGamblingJ2"	93	1	1	1	0.30511	0.71445	"i"	"i"	0	0	2	48
"MarkovTaskGamblingJ2"	94	1	0	0	0.30059	0.622575	"i"	"e"	0	1	2	48
"MarkovTaskGamblingJ2"	95	1	0	1	0.202955	0.464905	"i"	"i"	1	1	2	48
"MarkovTaskGamblingJ2"	96	1	1	1	0.27698	0.582115	"i"	"i"	0	1	2	48
"MarkovTaskGamblingJ2"	97	1	0	1	0.308415	0.74851	"i"	"i"	0	0	2	48
"MarkovTaskGamblingJ2"	98	0	0	0	0.5431	0.8314	"e"	"e"	1	1	2	48
"MarkovTaskGamblingJ2"	99	1	1	1	0.303	0.381985	"e"	"e"	1	1	2	48
"MarkovTaskGamblingJ2"	100	1	1	1	0.317615	0.40124	"e"	"e"	0	1	2	48
"MarkovTaskGamblingJ2"	101	1	0	1	0.11938	0.55273	"e"	"e"	1	0	2	48
"MarkovTaskGamblingJ2"	102	1	1	0	0.476265	0.46491	"e"	"e"	0	1	2	48
"MarkovTaskGamblingJ2"	103	1	0	1	0.902215	0.499935	"e"	"i"	1	0	2	48
"MarkovTaskGamblingJ2"	104	1	1	0	0.401025	0.62009	"e"	"e"	0	0	2	48
"MarkovTaskGamblingJ2"	105	1	0	0	0.417265	0.887675	"e"	"e"	1	1	2	48
"MarkovTaskGamblingJ2"	106	1	1	1	0.45097	0.536185	"e"	"e"	0	1	2	48
"MarkovTaskGamblingJ2"	107	1	0	1	0.47459	0.887235	"e"	"i"	0	1	2	48
"MarkovTaskGamblingJ2"	108	1	0	1	0.2674	0.548735	"e"	"e"	0	1	2	48
"MarkovTaskGamblingJ2"	109	1	0	1	0.21961	0.55262	"e"	"e"	1	1	2	48
"MarkovTaskGamblingJ2"	110	1	1	1	0.367625	0.734175	"e"	"e"	1	0	2	48
"MarkovTaskGamblingJ2"	111	1	1	0	0.417555	0.719285	"e"	"e"	1	0	2	48
"MarkovTaskGamblingJ2"	112	1	1	0	0.402105	0.883715	"e"	"i"	1	1	2	48
"MarkovTaskGamblingJ2"	113	1	1	1	0.36834	0.70374	"e"	"i"	1	1	2	48
"MarkovTaskGamblingJ2"	114	1	1	1	0.33962	0.66904	"e"	"i"	0	1	2	48
"MarkovTaskGamblingJ2"	115	1	0	1	0.322195	0.69797	"e"	"i"	0	1	2	48
"MarkovTaskGamblingJ2"	116	1	0	1	0.351185	0.786625	"e"	"e"	0	1	2	48
"MarkovTaskGamblingJ2"	117	1	0	1	0.272845	0.63127	"e"	"e"	1	1	2	48
"MarkovTaskGamblingJ2"	118	1	1	1	0.42406	0.767145	"e"	"i"	1	0	2	48
"MarkovTaskGamblingJ2"	119	1	1	0	0.30975	0.739705	"e"	"e"	0	1	2	48
"MarkovTaskGamblingJ2"	120	1	0	1	0.283345	0.87202	"e"	"e"	1	1	2	48
"MarkovTaskGamblingJ2"	121	1	1	1	0.31111	0.766125	"e"	"e"	1	1	2	48
"MarkovTaskGamblingJ2"	122	1	1	1	0.302295	0.785655	"e"	"i"	0	0	2	48
"MarkovTaskGamblingJ2"	123	1	0	0	0.317425	0.784575	"e"	"i"	1	1	2	48
"MarkovTaskGamblingJ2"	124	1	1	1	0.35158	0.647485	"e"	"e"	1	1	2	48
"MarkovTaskGamblingJ2"	125	1	1	1	0.334455	0.622195	"e"	"i"	1	0	2	48
"MarkovTaskGamblingJ2"	126	1	1	0	0.351835	0.699105	"e"	"i"	1	1	2	48
"MarkovTaskGamblingJ2"	127	1	1	1	0.33372	0.60342	"e"	"e"	1	1	2	48
"MarkovTaskGamblingJ2"	128	1	1	1	0.32596	0.554705	"e"	"i"	1	1	2	48
"MarkovTaskGamblingJ2"	129	1	1	1	0.425045	0.60099	"e"	"e"	1	1	2	48
"MarkovTaskGamblingJ2"	130	1	1	1	0.351345	0.49622	"e"	"i"	0	1	2	48
"MarkovTaskGamblingJ2"	131	1	0	1	0.367855	0.520225	"e"	"i"	0	1	2	48
"MarkovTaskGamblingJ2"	132	1	0	1	0.289795	0.59838	"e"	"i"	0	1	2	48
"MarkovTaskGamblingJ2"	133	1	0	1	0.21751	0.369965	"e"	"e"	0	1	2	48
"MarkovTaskGamblingJ2"	134	1	0	1	0.284385	0.62081	"e"	"e"	0	0	2	48
"MarkovTaskGamblingJ2"	135	1	0	0	0.267075	0.740265	"e"	"e"	1	0	2	48
"MarkovTaskGamblingJ2"	136	1	1	0	0.333655	0.58373	"e"	"i"	1	0	2	48
"MarkovTaskGamblingJ2"	137	1	1	0	0.30945	0.61568	"e"	"i"	1	1	2	48
"MarkovTaskGamblingJ2"	138	1	1	1	0.29925	0.649655	"e"	"e"	0	1	2	48
"MarkovTaskGamblingJ2"	139	1	0	1	0.276475	0.516015	"e"	"i"	1	1	2	48
"MarkovTaskGamblingJ2"	140	1	1	1	0.335575	0.66605	"e"	"e"	1	1	2	48
"MarkovTaskGamblingJ2"	141	1	1	1	0.35937	0.799015	"e"	"i"	0	0	2	48
"MarkovTaskGamblingJ2"	142	1	0	0	0.288925	0.53101	"e"	"e"	0	1	2	48
"MarkovTaskGamblingJ2"	143	1	0	1	0.352585	0.738575	"e"	"i"	0	1	2	48
"MarkovTaskGamblingJ2"	144	1	0	1	0.33385	0.68306	"e"	"e"	0	1	2	48
"MarkovTaskGamblingJ2"	145	1	0	1	0.29993	0.581955	"e"	"i"	1	1	2	48
"MarkovTaskGamblingJ2"	146	1	1	1	0.368495	0.88223	"e"	"i"	0	0	2	48
"MarkovTaskGamblingJ2"	147	1	0	0	0.251465	0.737855	"e"	"e"	0	0	2	48
"MarkovTaskGamblingJ2"	148	1	0	0	0.383525	0.718395	"e"	"e"	1	1	2	48
"MarkovTaskGamblingJ2"	149	1	1	1	0.367615	0.65005	"e"	"i"	0	1	2	48
"MarkovTaskGamblingJ2"	150	1	0	1	0.30563	0.607985	"e"	"e"	0	1	2	48
"MarkovTaskGamblingJ2"	151	1	0	1	0.369905	0.653435	"e"	"e"	1	1	2	48
"MarkovTaskGamblingJ2"	152	1	1	1	0.28546	0.81616	"e"	"e"	1	1	2	48
"MarkovTaskGamblingJ2"	153	1	1	1	0.548965	0.717085	"e"	"i"	1	0	2	48
"MarkovTaskGamblingJ2"	154	1	1	0	0.39014	0.684065	"e"	"e"	1	1	2	48
"MarkovTaskGamblingJ2"	155	1	1	1	0.46776	0.707215	"e"	"i"	0	0	2	48
"MarkovTaskGamblingJ2"	156	1	0	0	0.30061	0.703945	"e"	"e"	1	1	2	48
"MarkovTaskGamblingJ2"	157	1	1	1	0.718405	0.766945	"e"	"e"	0	1	2	48
"MarkovTaskGamblingJ2"	158	1	0	1	0.323775	0.665415	"e"	"e"	1	1	2	48
"MarkovTaskGamblingJ2"	159	1	1	1	0.319695	0.66981	"e"	"e"	1	1	2	48
"MarkovTaskGamblingJ2"	160	1	1	1	0.38664	0.5483	"e"	"i"	1	0	2	48
"MarkovTaskGamblingJ2"	161	1	1	0	0.367395	0.682825	"e"	"i"	1	0	2	48
"MarkovTaskGamblingJ2"	162	1	1	0	0.35114	0.713855	"e"	"e"	0	1	2	48
"MarkovTaskGamblingJ2"	163	1	0	1	0.337955	0.7321	"e"	"e"	1	1	2	48
"MarkovTaskGamblingJ2"	164	1	1	1	0.32347	0.63977	"e"	"e"	0	1	2	48
"MarkovTaskGamblingJ2"	165	1	0	1	0.28873	0.64002	"e"	"e"	1	1	2	48
"MarkovTaskGamblingJ2"	166	1	1	1	0.31712	0.631185	"e"	"i"	0	0	2	48
"MarkovTaskGamblingJ2"	167	1	0	0	0.2856	0.755025	"e"	"e"	0	1	2	48
"MarkovTaskGamblingJ2"	168	1	0	1	0.234025	0.700545	"e"	"e"	1	1	2	48
"MarkovTaskGamblingJ2"	169	1	1	1	0.33378	0.59852	"e"	"e"	0	1	2	48
"MarkovTaskGamblingJ2"	170	0	0	1	0.156525	0.530865	"i"	"i"	0	1	2	48
"MarkovTaskGamblingJ2"	171	1	0	1	0.1673	0.41467	"i"	"i"	0	1	2	48
"MarkovTaskGamblingJ2"	172	1	0	1	0.19968	0.415235	"i"	"i"	0	0	2	48
"MarkovTaskGamblingJ2"	173	0	0	0	0.158975	0.331895	"e"	"e"	0	1	2	48
"MarkovTaskGamblingJ2"	174	1	0	1	0.06611	0.531105	"e"	"e"	0	1	2	48
"MarkovTaskGamblingJ2"	175	1	0	1	0.21854	0.72183	"e"	"e"	0	0	2	48
"MarkovTaskGamblingJ2"	176	1	0	0	0.066695	0.514375	"e"	"e"	0	1	2	48
"MarkovTaskGamblingJ2"	177	1	0	1	0.468605	0.848605	"e"	"i"	0	1	2	48
"MarkovTaskGamblingJ2"	178	1	0	1	0.20193	0.748455	"e"	"e"	1	1	2	48
"MarkovTaskGamblingJ2"	179	1	1	1	0.35094	0.64912	"e"	"e"	1	1	2	48
"MarkovTaskGamblingJ2"	180	1	1	1	0.140835	0.668455	"e"	"e"	1	1	2	48
"MarkovTaskGamblingJ2"	181	1	1	1	0.577275	0.93219	"e"	"e"	1	1	2	48
"MarkovTaskGamblingJ2"	182	1	1	1	0.249535	0.871705	"e"	"e"	0	1	2	48
"MarkovTaskGamblingJ2"	183	1	0	1	0.439255	0.668835	"e"	"e"	0	1	2	48
"MarkovTaskGamblingJ2"	184	1	0	1	0.38385	0.947465	"e"	"e"	1	1	2	48
"MarkovTaskGamblingJ2"	185	1	1	1	0.31778	0.79789	"e"	"e"	1	1	2	48
"MarkovTaskGamblingJ2"	186	1	1	1	0.46731	0.69972	"e"	"e"	1	1	2	48
"MarkovTaskGamblingJ2"	187	1	1	1	0.351415	0.87393	"e"	"e"	1	0	2	48
"MarkovTaskGamblingJ2"	188	1	1	0	0.28664	0.887755	"e"	"e"	0	1	2	48
"MarkovTaskGamblingJ2"	189	1	0	1	0.383645	0.64893	"e"	"e"	1	1	2	48
"MarkovTaskGamblingJ2"	190	1	1	1	0.426	0.901365	"e"	"e"	0	0	2	48
"MarkovTaskGamblingJ2"	191	1	0	0	0.13464	0.931775	"e"	"e"	0	1	2	48
"MarkovTaskGamblingJ2"	192	1	0	1	0.461545	1.315155	"e"	"e"	1	1	2	48
"MarkovTaskGamblingJ2"	193	1	1	1	0.50593	0.76419	"e"	"e"	0	0	2	48
"MarkovTaskGamblingJ2"	194	1	0	0	0.975955	0.881505	"e"	"e"	0	0	2	48
"MarkovTaskGamblingJ2"	195	1	0	0	0.25695	1.048295	"e"	"e"	1	1	2	48
"MarkovTaskGamblingJ2"	197	1	1	1	0.884765	0.863605	"e"	"e"	0	1	2	48
"MarkovTaskGamblingJ2"	198	1	0	1	0.150705	0.9328	"e"	"e"	0	1	2	48
"MarkovTaskGamblingJ2"	199	1	0	1	0.309345	0.56963	"e"	"e"	0	0	2	48
"MarkovTaskGamblingJ2"	200	1	0	0	0.05006	0.465455	"e"	"e"	1	1	2	48
"MarkovTaskGamblingJ2"	11	1	0	1	0.057255	0.384185	"e"	"i"	1	1	2	428
"MarkovTaskGamblingJ2"	12	1	1	1	0.23437	0.102565	"e"	"i"	0	1	2	428
"MarkovTaskGamblingJ2"	13	1	0	1	0.25137	0.08426	"e"	"e"	0	0	2	428
"MarkovTaskGamblingJ2"	14	1	0	0	0.134265	0.2343	"e"	"i"	1	1	2	428
"MarkovTaskGamblingJ2"	15	1	1	1	0.27727	0.217945	"e"	"i"	0	1	2	428
"MarkovTaskGamblingJ2"	16	1	0	1	0.1346	0.11757	"e"	"e"	1	0	2	428
"MarkovTaskGamblingJ2"	17	1	1	0	0.08577	0.22601	"e"	"e"	0	0	2	428
"MarkovTaskGamblingJ2"	18	1	0	0	0.184495	0.305955	"e"	"e"	1	0	2	428
"MarkovTaskGamblingJ2"	19	1	1	0	0.301	0.521185	"e"	"i"	1	0	2	428
"MarkovTaskGamblingJ2"	20	1	1	0	0.234395	0.88448	"e"	"e"	0	1	2	428
"MarkovTaskGamblingJ2"	21	1	0	1	0.017595	0.551065	"e"	"i"	1	1	2	428
"MarkovTaskGamblingJ2"	22	1	1	1	0.15095	0.234345	"e"	"i"	0	1	2	428
"MarkovTaskGamblingJ2"	23	1	0	1	0.13426	0.250915	"e"	"i"	0	0	2	428
"MarkovTaskGamblingJ2"	24	0	0	0	0.217785	0.96782	"i"	"e"	1	0	2	428
"MarkovTaskGamblingJ2"	25	1	1	0	0.16647	0.350925	"i"	"e"	1	0	2	428
"MarkovTaskGamblingJ2"	26	1	1	0	0.267785	0.217575	"i"	"e"	1	1	2	428
"MarkovTaskGamblingJ2"	27	1	1	1	0.25086	0.38496	"i"	"e"	1	1	2	428
"MarkovTaskGamblingJ2"	28	1	1	1	0.08435	0.234065	"i"	"e"	1	1	2	428
"MarkovTaskGamblingJ2"	29	1	1	1	0.13382	0.26807	"i"	"e"	1	0	2	428
"MarkovTaskGamblingJ2"	30	1	1	0	0.150825	0.164885	"i"	"e"	0	1	2	428
"MarkovTaskGamblingJ2"	31	1	0	1	0.084325	0.13409	"i"	"e"	1	1	2	428
"MarkovTaskGamblingJ2"	32	1	1	1	0.251	0.200885	"i"	"e"	1	1	2	428
"MarkovTaskGamblingJ2"	33	1	1	1	0.1343	0.26769	"i"	"e"	1	0	2	428
"MarkovTaskGamblingJ2"	34	1	1	0	0.03427	0.217595	"i"	"e"	0	1	2	428
"MarkovTaskGamblingJ2"	35	1	0	1	0.00102	0.200925	"i"	"i"	0	1	2	428
"MarkovTaskGamblingJ2"	36	1	0	1	0.21766	0.38439	"i"	"i"	0	1	2	428
"MarkovTaskGamblingJ2"	37	1	0	1	0.01773	0.20085	"i"	"e"	1	0	2	428
"MarkovTaskGamblingJ2"	38	1	1	0	0.23423	0.36761	"i"	"e"	1	1	2	428
"MarkovTaskGamblingJ2"	39	1	1	1	0.11753	0.16761	"i"	"e"	1	0	2	428
"MarkovTaskGamblingJ2"	40	1	1	0	0.184275	0.16763	"i"	"e"	1	0	2	428
"MarkovTaskGamblingJ2"	41	1	1	0	0.23427	0.15126	"i"	"e"	1	0	2	428
"MarkovTaskGamblingJ2"	42	1	1	0	0.16766	0.68436	"i"	"i"	1	1	2	428
"MarkovTaskGamblingJ2"	43	1	1	1	0.00104	0.817675	"i"	"i"	0	1	2	428
"MarkovTaskGamblingJ2"	44	1	0	1	0.11758	0.717735	"i"	"e"	1	0	2	428
"MarkovTaskGamblingJ2"	45	1	1	0	0.30104	0.40109	"i"	"e"	1	1	2	428
"MarkovTaskGamblingJ2"	46	1	1	1	0.334425	0.317475	"i"	"e"	1	1	2	428
"MarkovTaskGamblingJ2"	47	1	1	1	0.150935	0.200955	"i"	"e"	1	1	2	428
"MarkovTaskGamblingJ2"	48	1	1	1	0.034295	0.284075	"i"	"e"	1	1	2	428
"MarkovTaskGamblingJ2"	49	1	1	1	0.084245	0.21736	"i"	"e"	1	0	2	428
"MarkovTaskGamblingJ2"	50	1	1	0	0.050545	0.200895	"i"	"e"	1	1	2	428
"MarkovTaskGamblingJ2"	51	1	1	1	0.00099	0.200845	"i"	"e"	0	1	2	428
"MarkovTaskGamblingJ2"	52	1	0	1	0.106445	0.13675	"i"	"i"	0	1	2	428
"MarkovTaskGamblingJ2"	53	0	0	1	0.251985	0.150665	"e"	"e"	1	1	2	428
"MarkovTaskGamblingJ2"	54	1	1	1	0.18924	0.250985	"e"	"e"	0	1	2	428
"MarkovTaskGamblingJ2"	55	1	0	1	0.20079	0.150745	"e"	"i"	0	1	2	428
"MarkovTaskGamblingJ2"	56	0	0	1	0.050845	0.184175	"i"	"e"	0	0	2	428
"MarkovTaskGamblingJ2"	57	1	0	0	0.250925	0.100545	"i"	"i"	1	1	2	428
"MarkovTaskGamblingJ2"	58	1	1	1	0.167855	0.100855	"i"	"i"	1	1	2	428
"MarkovTaskGamblingJ2"	59	1	1	1	0.068065	0.09516	"i"	"i"	0	1	2	428
"MarkovTaskGamblingJ2"	60	1	0	1	0.18399	0.460795	"i"	"i"	0	1	2	428
"MarkovTaskGamblingJ2"	61	1	0	1	0.20111	0.48573	"i"	"e"	0	1	2	428
"MarkovTaskGamblingJ2"	62	0	0	1	0.17957	0.21756	"e"	"i"	0	0	2	428
"MarkovTaskGamblingJ2"	63	1	0	0	0.15449	0.78454	"e"	"e"	1	0	2	428
"MarkovTaskGamblingJ2"	64	1	1	0	0.284405	0.834505	"e"	"e"	0	0	2	428
"MarkovTaskGamblingJ2"	65	1	0	0	0.23441	0.717645	"e"	"i"	1	0	2	428
"MarkovTaskGamblingJ2"	66	1	1	0	0.184425	0.418035	"e"	"i"	0	0	2	428
"MarkovTaskGamblingJ2"	67	1	0	0	0.117515	0.60104	"e"	"e"	1	1	2	428
"MarkovTaskGamblingJ2"	68	1	1	1	0.234195	0.35095	"e"	"e"	1	1	2	428
"MarkovTaskGamblingJ2"	69	1	1	1	0.23431	0.184305	"e"	"e"	1	1	2	428
"MarkovTaskGamblingJ2"	70	1	1	1	0.117435	0.150965	"e"	"e"	1	1	2	428
"MarkovTaskGamblingJ2"	71	1	1	1	0.117465	0.150995	"e"	"e"	1	1	2	428
"MarkovTaskGamblingJ2"	72	1	1	1	0.134005	0.184305	"e"	"e"	0	1	2	428
"MarkovTaskGamblingJ2"	73	1	0	1	0.401145	0.08422	"e"	"e"	1	1	2	428
"MarkovTaskGamblingJ2"	74	1	1	1	0.184265	0.151055	"e"	"e"	1	1	2	428
"MarkovTaskGamblingJ2"	75	1	1	1	0.15081	0.134325	"e"	"e"	1	1	2	428
"MarkovTaskGamblingJ2"	76	1	1	1	0.2553	0.08433	"e"	"e"	0	1	2	428
"MarkovTaskGamblingJ2"	77	1	0	1	0.1728	0.49136	"e"	"i"	1	1	2	428
"MarkovTaskGamblingJ2"	78	1	1	1	0.12257	1.31755	"e"	"e"	0	0	2	428
"MarkovTaskGamblingJ2"	79	1	0	0	0.01867	0.22125	"e"	"i"	0	0	2	428
"MarkovTaskGamblingJ2"	80	1	0	0	0.20095	0.28439	"e"	"i"	0	0	2	428
"MarkovTaskGamblingJ2"	81	1	0	0	0.151155	0.384365	"e"	"i"	1	1	2	428
"MarkovTaskGamblingJ2"	82	1	1	1	0.38438	0.834555	"e"	"e"	1	0	2	428
"MarkovTaskGamblingJ2"	83	1	1	0	0.1177	0.517585	"e"	"e"	0	0	2	428
"MarkovTaskGamblingJ2"	84	1	0	0	0.28444	0.417775	"e"	"i"	1	1	2	428
"MarkovTaskGamblingJ2"	85	1	1	1	0.384355	0.38391	"e"	"i"	1	1	2	428
"MarkovTaskGamblingJ2"	86	1	1	1	0.217585	0.31755	"e"	"i"	0	1	2	428
"MarkovTaskGamblingJ2"	87	1	0	1	0.267645	0.8511	"e"	"e"	0	0	2	428
"MarkovTaskGamblingJ2"	88	1	0	0	0.3011	0.6093	"e"	"i"	0	0	2	428
"MarkovTaskGamblingJ2"	89	0	0	0	0.354525	0.50128	"i"	"i"	0	1	2	428
"MarkovTaskGamblingJ2"	90	0	0	1	0.10119	0.669155	"e"	"i"	1	1	2	428
"MarkovTaskGamblingJ2"	91	1	1	1	0.34554	0.384255	"e"	"i"	0	1	2	428
"MarkovTaskGamblingJ2"	92	1	0	1	0.21071	0.42791	"e"	"e"	1	1	2	428
"MarkovTaskGamblingJ2"	93	1	1	1	0.137	0.4241	"e"	"e"	0	0	2	428
"MarkovTaskGamblingJ2"	94	1	0	0	0.051975	0.303935	"e"	"e"	1	1	2	428
"MarkovTaskGamblingJ2"	95	1	1	1	0.301065	0.46775	"e"	"e"	0	1	2	428
"MarkovTaskGamblingJ2"	96	1	0	1	0.151055	1.651335	"e"	"i"	0	0	2	428
"MarkovTaskGamblingJ2"	97	1	0	0	0.084295	0.73421	"e"	"e"	1	0	2	428
"MarkovTaskGamblingJ2"	98	1	1	0	0.184085	0.46756	"e"	"e"	0	1	2	428
"MarkovTaskGamblingJ2"	99	1	0	1	0.25102	0.317745	"e"	"e"	1	1	2	428
"MarkovTaskGamblingJ2"	100	1	1	1	0.434265	0.267785	"e"	"e"	1	1	2	428
"MarkovTaskGamblingJ2"	101	1	1	1	0.16785	0.267595	"e"	"e"	1	1	2	428
"MarkovTaskGamblingJ2"	102	1	1	1	0.401215	0.351005	"e"	"e"	1	1	2	428
"MarkovTaskGamblingJ2"	103	1	1	1	0.300995	0.30094	"e"	"e"	1	0	2	428
"MarkovTaskGamblingJ2"	104	1	1	0	0.234245	0.150925	"e"	"e"	0	0	2	428
"MarkovTaskGamblingJ2"	105	1	0	0	0.06762	0.25084	"e"	"e"	1	0	2	428
"MarkovTaskGamblingJ2"	106	1	1	0	0.301065	0.20114	"e"	"e"	1	1	2	428
"MarkovTaskGamblingJ2"	107	1	1	1	0.23437	0.16765	"e"	"e"	1	1	2	428
"MarkovTaskGamblingJ2"	108	1	1	1	0.15117	0.13439	"e"	"e"	1	1	2	428
"MarkovTaskGamblingJ2"	109	1	1	1	0.150875	0.15094	"e"	"e"	0	1	2	428
"MarkovTaskGamblingJ2"	110	1	0	1	0.300905	0.101055	"e"	"i"	0	1	2	428
"MarkovTaskGamblingJ2"	111	1	0	1	0.15078	0.134235	"e"	"e"	0	0	2	428
"MarkovTaskGamblingJ2"	112	1	0	0	0.1842	0.184205	"e"	"i"	1	1	2	428
"MarkovTaskGamblingJ2"	113	1	1	1	0.30125	0.26751	"e"	"i"	0	0	2	428
"MarkovTaskGamblingJ2"	114	1	0	0	0.367935	0.184255	"e"	"i"	0	1	2	428
"MarkovTaskGamblingJ2"	115	1	0	1	0.217855	0.16736	"e"	"e"	1	0	2	428
"MarkovTaskGamblingJ2"	116	1	1	0	0.30118	0.18409	"e"	"e"	0	0	2	428
"MarkovTaskGamblingJ2"	117	1	0	0	0.167355	0.217655	"e"	"i"	0	0	2	428
"MarkovTaskGamblingJ2"	118	1	0	0	0.267965	0.16771	"e"	"e"	1	1	2	428
"MarkovTaskGamblingJ2"	119	1	1	1	0.384365	0.167755	"e"	"e"	1	0	2	428
"MarkovTaskGamblingJ2"	120	1	1	0	0.367705	0.234265	"e"	"e"	0	1	2	428
"MarkovTaskGamblingJ2"	121	1	0	1	0.717755	0.61767	"e"	"i"	0	0	2	428
"MarkovTaskGamblingJ2"	122	1	0	0	0.201195	0.18428	"e"	"e"	1	1	2	428
"MarkovTaskGamblingJ2"	123	1	1	1	0.15108	0.11753	"e"	"e"	0	0	2	428
"MarkovTaskGamblingJ2"	124	1	0	0	0.217605	0.134205	"e"	"i"	1	0	2	428
"MarkovTaskGamblingJ2"	125	1	1	0	0.30048	0.13418	"e"	"i"	1	1	2	428
"MarkovTaskGamblingJ2"	126	1	1	1	0.334105	0.1841	"e"	"i"	0	0	2	428
"MarkovTaskGamblingJ2"	127	1	0	0	0.134175	0.1508	"e"	"e"	1	1	2	428
"MarkovTaskGamblingJ2"	128	1	1	1	0.31751	0.21769	"e"	"e"	0	1	2	428
"MarkovTaskGamblingJ2"	129	1	0	1	0.30066	0.254185	"e"	"i"	1	1	2	428
"MarkovTaskGamblingJ2"	130	1	1	1	0.56793	0.234195	"e"	"i"	0	1	2	428
"MarkovTaskGamblingJ2"	131	1	0	1	0.467745	0.167635	"e"	"e"	0	0	2	428
"MarkovTaskGamblingJ2"	132	1	0	0	0.3176	0.11762	"e"	"e"	1	0	2	428
"MarkovTaskGamblingJ2"	133	1	1	0	0.351095	0.234275	"e"	"e"	1	1	2	428
"MarkovTaskGamblingJ2"	134	1	1	1	0.134215	0.1342	"e"	"e"	0	1	2	428
"MarkovTaskGamblingJ2"	135	1	0	1	0.317385	0.25106	"e"	"i"	1	1	2	428
"MarkovTaskGamblingJ2"	136	1	1	1	0.417725	0.16803	"e"	"i"	1	1	2	428
"MarkovTaskGamblingJ2"	137	1	1	1	0.251045	0.21756	"e"	"i"	0	0	2	428
"MarkovTaskGamblingJ2"	138	1	0	0	0.251075	0.117635	"e"	"i"	1	1	2	428
"MarkovTaskGamblingJ2"	139	1	1	1	0.167765	0.10104	"e"	"i"	1	1	2	428
"MarkovTaskGamblingJ2"	140	1	1	1	0.284325	0.134335	"e"	"i"	0	0	2	428
"MarkovTaskGamblingJ2"	141	1	0	0	0.217305	0.601	"e"	"e"	0	1	2	428
"MarkovTaskGamblingJ2"	142	1	0	1	0.35105	0.651075	"e"	"i"	1	1	2	428
"MarkovTaskGamblingJ2"	143	1	1	1	0.117635	0.284235	"e"	"i"	0	1	2	428
"MarkovTaskGamblingJ2"	144	1	0	1	0.184325	0.417695	"e"	"e"	1	1	2	428
"MarkovTaskGamblingJ2"	145	1	1	1	0.11767	0.167475	"e"	"e"	1	1	2	428
"MarkovTaskGamblingJ2"	146	1	1	1	0.16758	0.41771	"e"	"e"	0	0	2	428
"MarkovTaskGamblingJ2"	147	1	0	0	0.084265	0.484575	"e"	"e"	1	1	2	428
"MarkovTaskGamblingJ2"	148	1	1	1	0.234465	0.43438	"e"	"e"	1	0	2	428
"MarkovTaskGamblingJ2"	149	1	1	0	0.401005	0.450995	"e"	"e"	1	1	2	428
"MarkovTaskGamblingJ2"	150	1	1	1	0.284265	0.450995	"e"	"e"	1	1	2	428
"MarkovTaskGamblingJ2"	151	1	1	1	0.651025	0.2507	"e"	"e"	1	1	2	428
"MarkovTaskGamblingJ2"	152	1	1	1	0.384655	0.434535	"e"	"e"	1	1	2	428
"MarkovTaskGamblingJ2"	153	1	1	1	0.300955	0.50124	"e"	"e"	1	0	2	428
"MarkovTaskGamblingJ2"	154	1	1	0	0.10083	0.550735	"e"	"e"	0	1	2	428
"MarkovTaskGamblingJ2"	155	1	0	1	0.31817	0.584395	"e"	"i"	0	1	2	428
"MarkovTaskGamblingJ2"	156	1	0	1	0.48436	0.767595	"e"	"e"	0	1	2	428
"MarkovTaskGamblingJ2"	157	1	0	1	0.96789	0.400925	"e"	"e"	0	1	2	428
"MarkovTaskGamblingJ2"	158	1	0	1	0.15088	0.23422	"e"	"i"	1	0	2	428
"MarkovTaskGamblingJ2"	159	1	1	0	0.06771	0.050805	"e"	"i"	1	1	2	428
"MarkovTaskGamblingJ2"	160	1	1	1	0.067695	0.100925	"e"	"i"	0	1	2	428
"MarkovTaskGamblingJ2"	161	1	0	1	0.03431	0.100925	"e"	"i"	1	1	2	428
"MarkovTaskGamblingJ2"	162	1	1	1	0.45092	0.034355	"e"	"i"	0	0	2	428
"MarkovTaskGamblingJ2"	163	1	0	0	0.06772	0.067545	"e"	"i"	1	1	2	428
"MarkovTaskGamblingJ2"	164	1	1	1	0.084215	0.08417	"e"	"i"	1	0	2	428
"MarkovTaskGamblingJ2"	165	1	1	0	0.18446	0.01745	"e"	"i"	1	1	2	428
"MarkovTaskGamblingJ2"	166	1	1	1	0.051125	0.23425	"e"	"i"	1	1	2	428
"MarkovTaskGamblingJ2"	167	1	1	1	0.45088	0.03485	"e"	"i"	1	1	2	428
"MarkovTaskGamblingJ2"	168	1	1	1	0.10091	0.034255	"e"	"i"	1	1	2	428
"MarkovTaskGamblingJ2"	169	1	1	1	0.034095	0.267555	"e"	"i"	0	0	2	428
"MarkovTaskGamblingJ2"	170	1	0	0	0.067505	0.117635	"e"	"i"	1	1	2	428
"MarkovTaskGamblingJ2"	171	1	1	1	0.117695	0.06589	"e"	"i"	0	1	2	428
"MarkovTaskGamblingJ2"	172	1	0	1	0.18587	0.551025	"e"	"e"	1	0	2	428
"MarkovTaskGamblingJ2"	173	1	1	0	0.217585	0.634635	"e"	"i"	1	1	2	428
"MarkovTaskGamblingJ2"	174	1	1	1	0.151015	0.41752	"e"	"i"	0	1	2	428
"MarkovTaskGamblingJ2"	175	1	0	1	0.15098	0.751165	"e"	"e"	1	0	2	428
"MarkovTaskGamblingJ2"	176	1	1	0	0.050965	0.517615	"e"	"e"	1	0	2	428
"MarkovTaskGamblingJ2"	177	1	1	0	0.084385	0.50109	"e"	"e"	1	0	2	428
"MarkovTaskGamblingJ2"	178	0	1	0	0.10092	0.367525	"i"	"e"	1	1	2	428
"MarkovTaskGamblingJ2"	179	1	1	1	0.23413	0.367725	"i"	"e"	1	1	2	428
"MarkovTaskGamblingJ2"	180	1	1	1	0.00102	0.33431	"i"	"e"	1	0	2	428
"MarkovTaskGamblingJ2"	181	1	1	0	0.05089	0.534175	"i"	"i"	0	0	2	428
"MarkovTaskGamblingJ2"	182	1	0	0	0.050995	0.267375	"i"	"e"	1	1	2	428
"MarkovTaskGamblingJ2"	183	1	1	1	0.11755	0.284765	"i"	"e"	1	1	2	428
"MarkovTaskGamblingJ2"	184	1	1	1	0.050815	0.134465	"i"	"e"	1	1	2	428
"MarkovTaskGamblingJ2"	185	1	1	1	0.001085	0.20056	"i"	"e"	1	1	2	428
"MarkovTaskGamblingJ2"	186	1	1	1	0.117545	0.334285	"i"	"e"	1	1	2	428
"MarkovTaskGamblingJ2"	187	1	1	1	0.18426	0.167645	"i"	"e"	0	1	2	428
"MarkovTaskGamblingJ2"	188	1	0	1	0.21776	0.36778	"i"	"e"	0	1	2	428
"MarkovTaskGamblingJ2"	189	1	0	1	0.251315	0.18449	"i"	"i"	0	0	2	428
"MarkovTaskGamblingJ2"	190	1	0	0	0.217655	0.433705	"i"	"i"	0	1	2	428
"MarkovTaskGamblingJ2"	191	0	0	1	0.0176	0.117515	"e"	"e"	1	1	2	428
"MarkovTaskGamblingJ2"	192	1	1	1	0.09216	0.090725	"e"	"e"	1	1	2	428
"MarkovTaskGamblingJ2"	193	1	1	1	0.36262	0.070155	"e"	"e"	1	1	2	428
"MarkovTaskGamblingJ2"	194	1	1	1	0.12647	0.040605	"e"	"e"	0	1	2	428
"MarkovTaskGamblingJ2"	195	1	0	1	0.15098	0.06759	"e"	"e"	1	1	2	428
"MarkovTaskGamblingJ2"	196	1	1	1	0.367875	0.084215	"e"	"e"	0	1	2	428
"MarkovTaskGamblingJ2"	197	1	0	1	0.367865	0.134155	"e"	"e"	0	0	2	428
"MarkovTaskGamblingJ2"	198	1	0	0	0.21773	0.101125	"e"	"i"	1	1	2	428
"MarkovTaskGamblingJ2"	199	1	1	1	0.31754	0.03419	"e"	"i"	0	1	2	428
"MarkovTaskGamblingJ2"	200	1	0	1	0.151105	0.367635	"e"	"i"	1	1	2	428
"MarkovTaskGamblingJ2"	11	1	0	1	0.287	0.261	"i"	"i"	1	0	2	66
"MarkovTaskGamblingJ2"	12	0	1	0	0.668	0.33	"e"	"i"	1	1	2	66
"MarkovTaskGamblingJ2"	13	1	1	1	0.338	0.33	"e"	"i"	1	1	2	66
"MarkovTaskGamblingJ2"	14	1	1	1	0.318	0.28	"e"	"i"	1	1	2	66
"MarkovTaskGamblingJ2"	15	1	1	1	0.321	0.314	"e"	"i"	0	1	2	66
"MarkovTaskGamblingJ2"	16	1	0	1	0.485	0.314	"e"	"i"	0	1	2	66
"MarkovTaskGamblingJ2"	17	0	0	1	0.24	0.715	"i"	"i"	0	0	2	66
"MarkovTaskGamblingJ2"	18	1	0	0	0.334	0.817	"i"	"e"	1	0	2	66
"MarkovTaskGamblingJ2"	19	1	1	0	0.335	0.485	"i"	"e"	0	0	2	66
"MarkovTaskGamblingJ2"	20	1	0	0	0.301	0.928	"i"	"e"	1	1	2	66
"MarkovTaskGamblingJ2"	21	1	1	1	0.301	0.465	"i"	"e"	1	1	2	66
"MarkovTaskGamblingJ2"	22	1	1	1	0.334	0.879	"i"	"e"	1	0	2	66
"MarkovTaskGamblingJ2"	23	1	1	0	0.638	0.478	"i"	"e"	1	1	2	66
"MarkovTaskGamblingJ2"	24	1	1	1	0.319	0.616	"i"	"e"	1	1	2	66
"MarkovTaskGamblingJ2"	25	1	1	1	0.368	0.5	"i"	"e"	0	1	2	66
"MarkovTaskGamblingJ2"	26	1	0	1	0.552	0.65	"i"	"e"	1	0	2	66
"MarkovTaskGamblingJ2"	27	1	1	0	0.388	0.649	"i"	"e"	1	0	2	66
"MarkovTaskGamblingJ2"	28	0	1	0	0.335	0.396	"e"	"e"	1	1	2	66
"MarkovTaskGamblingJ2"	29	1	1	1	0.335	0.38	"e"	"e"	1	1	2	66
"MarkovTaskGamblingJ2"	30	1	1	1	0.305	0.348	"e"	"e"	1	1	2	66
"MarkovTaskGamblingJ2"	31	1	1	1	0.321	0.913	"e"	"e"	0	0	2	66
"MarkovTaskGamblingJ2"	32	1	0	0	0.323	0.497	"e"	"e"	0	1	2	66
"MarkovTaskGamblingJ2"	33	1	0	1	0.25	0.464	"e"	"e"	0	1	2	66
"MarkovTaskGamblingJ2"	34	1	0	1	0.335	0.631	"e"	"e"	0	1	2	66
"MarkovTaskGamblingJ2"	35	0	0	1	0.504	0.347	"i"	"i"	1	1	2	66
"MarkovTaskGamblingJ2"	36	1	1	1	0.335	0.408	"i"	"i"	0	0	2	66
"MarkovTaskGamblingJ2"	37	1	0	0	0.267	0.463	"i"	"i"	1	1	2	66
"MarkovTaskGamblingJ2"	38	1	1	1	0.385	0.58	"i"	"i"	1	1	2	66
"MarkovTaskGamblingJ2"	39	1	1	1	0.286	0.647	"i"	"i"	0	1	2	66
"MarkovTaskGamblingJ2"	40	1	0	1	0.319	0.396	"i"	"i"	0	0	2	66
"MarkovTaskGamblingJ2"	41	1	0	0	0.334	0.379	"i"	"i"	0	1	2	66
"MarkovTaskGamblingJ2"	42	0	0	1	0.835	0.497	"e"	"i"	0	1	2	66
"MarkovTaskGamblingJ2"	43	1	0	1	0.284	0.381	"e"	"e"	1	1	2	66
"MarkovTaskGamblingJ2"	44	1	1	1	0.303	0.563	"e"	"e"	1	1	2	66
"MarkovTaskGamblingJ2"	45	1	1	1	0.285	0.798	"e"	"e"	0	0	2	66
"MarkovTaskGamblingJ2"	46	1	0	0	0.32	0.38	"e"	"e"	0	1	2	66
"MarkovTaskGamblingJ2"	47	0	0	1	0.322	0.315	"i"	"e"	0	0	2	66
"MarkovTaskGamblingJ2"	48	1	0	0	0.352	1.031	"i"	"i"	0	0	2	66
"MarkovTaskGamblingJ2"	49	1	0	0	0.252	0.88	"i"	"e"	0	0	2	66
"MarkovTaskGamblingJ2"	50	1	0	0	0.352	0.731	"i"	"e"	0	0	2	66
"MarkovTaskGamblingJ2"	51	1	0	0	0.318	0.747	"i"	"e"	1	1	2	66
"MarkovTaskGamblingJ2"	52	1	1	1	0.364	0.481	"i"	"e"	1	1	2	66
"MarkovTaskGamblingJ2"	53	1	1	1	0.302	0.95	"i"	"i"	0	0	2	66
"MarkovTaskGamblingJ2"	54	1	0	0	0.203	0.463	"i"	"i"	0	1	2	66
"MarkovTaskGamblingJ2"	55	1	0	1	0.268	0.797	"i"	"e"	1	0	2	66
"MarkovTaskGamblingJ2"	56	1	1	0	0.318	0.378	"i"	"e"	1	0	2	66
"MarkovTaskGamblingJ2"	57	1	1	0	0.285	0.53	"i"	"e"	0	1	2	66
"MarkovTaskGamblingJ2"	58	0	0	1	0.268	0.413	"e"	"e"	0	1	2	66
"MarkovTaskGamblingJ2"	59	1	0	1	0.303	0.464	"e"	"e"	0	1	2	66
"MarkovTaskGamblingJ2"	60	1	0	1	0.285	0.382	"e"	"e"	1	1	2	66
"MarkovTaskGamblingJ2"	61	1	1	1	0.322	0.497	"e"	"e"	0	1	2	66
"MarkovTaskGamblingJ2"	62	0	0	1	0.368	0.513	"i"	"e"	1	1	2	66
"MarkovTaskGamblingJ2"	63	1	1	1	0.336	0.481	"i"	"e"	1	1	2	66
"MarkovTaskGamblingJ2"	64	1	1	1	0.352	0.514	"i"	"e"	1	1	2	66
"MarkovTaskGamblingJ2"	65	1	1	1	0.318	0.965	"i"	"i"	1	0	2	66
"MarkovTaskGamblingJ2"	66	1	1	0	0.321	0.431	"i"	"e"	1	1	2	66
"MarkovTaskGamblingJ2"	67	1	1	1	0.402	0.68	"i"	"e"	0	1	2	66
"MarkovTaskGamblingJ2"	68	1	0	1	0.401	0.397	"i"	"e"	1	1	2	66
"MarkovTaskGamblingJ2"	69	1	1	1	0.336	0.448	"i"	"e"	1	1	2	66
"MarkovTaskGamblingJ2"	70	1	1	1	0.368	0.397	"i"	"e"	1	1	2	66
"MarkovTaskGamblingJ2"	71	1	1	1	0.385	0.831	"i"	"i"	1	0	2	66
"MarkovTaskGamblingJ2"	72	1	1	0	0.45	0.626	"i"	"i"	1	0	2	66
"MarkovTaskGamblingJ2"	73	1	1	0	0.802	0.414	"i"	"e"	1	1	2	66
"MarkovTaskGamblingJ2"	74	1	1	1	0.32	0.984	"i"	"i"	1	0	2	66
"MarkovTaskGamblingJ2"	75	1	1	0	0.304	0.947	"i"	"i"	0	0	2	66
"MarkovTaskGamblingJ2"	76	1	0	0	0.303	0.496	"i"	"e"	0	1	2	66
"MarkovTaskGamblingJ2"	77	1	0	1	0.318	0.733	"i"	"i"	1	0	2	66
"MarkovTaskGamblingJ2"	78	1	1	0	0.319	0.412	"i"	"e"	1	1	2	66
"MarkovTaskGamblingJ2"	79	1	1	1	0.367	0.536	"i"	"e"	1	1	2	66
"MarkovTaskGamblingJ2"	80	1	1	1	0.418	0.598	"i"	"e"	0	1	2	66
"MarkovTaskGamblingJ2"	81	1	0	1	0.335	0.633	"i"	"i"	1	0	2	66
"MarkovTaskGamblingJ2"	82	1	1	0	0.341	0.729	"i"	"i"	1	1	2	66
"MarkovTaskGamblingJ2"	83	1	1	1	0.52	0.448	"i"	"i"	0	1	2	66
"MarkovTaskGamblingJ2"	84	1	0	1	0.384	0.648	"i"	"i"	0	0	2	66
"MarkovTaskGamblingJ2"	85	1	0	0	0.334	0.415	"i"	"i"	0	1	2	66
"MarkovTaskGamblingJ2"	86	0	0	1	0.468	0.398	"e"	"e"	0	1	2	66
"MarkovTaskGamblingJ2"	87	1	0	1	0.302	0.364	"e"	"i"	1	1	2	66
"MarkovTaskGamblingJ2"	88	1	1	1	0.319	0.348	"e"	"i"	0	1	2	66
"MarkovTaskGamblingJ2"	89	1	0	1	0.322	0.334	"e"	"i"	1	1	2	66
"MarkovTaskGamblingJ2"	90	1	1	1	0.301	0.365	"e"	"i"	1	0	2	66
"MarkovTaskGamblingJ2"	91	1	1	0	0.367	0.531	"e"	"i"	0	0	2	66
"MarkovTaskGamblingJ2"	92	1	0	0	0.319	0.634	"e"	"i"	0	1	2	66
"MarkovTaskGamblingJ2"	93	1	0	1	0.308	0.881	"e"	"e"	1	0	2	66
"MarkovTaskGamblingJ2"	94	1	1	0	0.355	0.731	"e"	"e"	1	0	2	66
"MarkovTaskGamblingJ2"	95	1	1	0	0.317	0.78	"e"	"i"	1	1	2	66
"MarkovTaskGamblingJ2"	96	1	1	1	0.351	1.634	"e"	"i"	0	1	2	66
"MarkovTaskGamblingJ2"	97	1	0	1	0.651	0.364	"e"	"e"	1	0	2	66
"MarkovTaskGamblingJ2"	98	0	1	0	0.452	0.717	"i"	"e"	1	0	2	66
"MarkovTaskGamblingJ2"	99	1	1	0	0.37	0.547	"i"	"e"	1	0	2	66
"MarkovTaskGamblingJ2"	100	0	1	0	0.255	0.698	"e"	"e"	1	0	2	66
"MarkovTaskGamblingJ2"	101	1	1	0	0.351	0.667	"e"	"e"	0	1	2	66
"MarkovTaskGamblingJ2"	102	1	0	1	0.268	0.761	"e"	"e"	0	0	2	66
"MarkovTaskGamblingJ2"	103	1	0	0	0.285	0.562	"e"	"e"	0	1	2	66
"MarkovTaskGamblingJ2"	104	1	0	1	0.288	0.668	"e"	"e"	0	0	2	66
"MarkovTaskGamblingJ2"	105	1	0	0	0.269	0.667	"e"	"i"	1	1	2	66
"MarkovTaskGamblingJ2"	106	1	1	1	0.335	0.662	"e"	"i"	1	0	2	66
"MarkovTaskGamblingJ2"	107	1	1	0	0.356	0.481	"e"	"i"	0	0	2	66
"MarkovTaskGamblingJ2"	108	0	0	0	0.289	0.397	"i"	"e"	0	0	2	66
"MarkovTaskGamblingJ2"	109	1	0	0	0.269	0.349	"i"	"i"	1	1	2	66
"MarkovTaskGamblingJ2"	110	1	1	1	0.284	0.88	"i"	"e"	0	0	2	66
"MarkovTaskGamblingJ2"	111	1	0	0	0.335	0.431	"i"	"i"	0	1	2	66
"MarkovTaskGamblingJ2"	112	1	0	1	0.352	0.498	"i"	"e"	0	1	2	66
"MarkovTaskGamblingJ2"	113	1	0	1	0.319	0.43	"i"	"i"	1	1	2	66
"MarkovTaskGamblingJ2"	114	1	1	1	0.401	0.458	"i"	"i"	0	1	2	66
"MarkovTaskGamblingJ2"	115	1	0	1	0.353	0.596	"i"	"e"	1	1	2	66
"MarkovTaskGamblingJ2"	116	1	1	1	0.405	0.946	"i"	"i"	1	0	2	66
"MarkovTaskGamblingJ2"	117	1	1	0	0.367	0.43	"i"	"e"	0	1	2	66
"MarkovTaskGamblingJ2"	118	1	0	1	0.269	0.598	"i"	"e"	0	1	2	66
"MarkovTaskGamblingJ2"	119	1	0	1	0.106	0.397	"i"	"i"	0	1	2	66
"MarkovTaskGamblingJ2"	120	0	0	1	0.135	0.365	"e"	"i"	1	1	2	66
"MarkovTaskGamblingJ2"	121	1	1	1	0.287	0.597	"e"	"i"	1	0	2	66
"MarkovTaskGamblingJ2"	122	1	1	0	0.285	0.597	"e"	"i"	1	0	2	66
"MarkovTaskGamblingJ2"	123	1	1	0	0.368	0.479	"e"	"i"	0	0	2	66
"MarkovTaskGamblingJ2"	124	1	0	0	0.284	0.431	"e"	"i"	1	1	2	66
"MarkovTaskGamblingJ2"	125	1	1	1	0.384	0.58	"e"	"i"	1	0	2	66
"MarkovTaskGamblingJ2"	126	1	1	0	0.334	0.463	"e"	"i"	1	0	2	66
"MarkovTaskGamblingJ2"	127	1	1	0	0.289	0.499	"e"	"i"	1	1	2	66
"MarkovTaskGamblingJ2"	128	1	1	1	0.34	0.484	"e"	"i"	1	1	2	66
"MarkovTaskGamblingJ2"	129	1	1	1	0.302	0.383	"e"	"i"	1	1	2	66
"MarkovTaskGamblingJ2"	130	1	1	1	0.317	0.464	"e"	"i"	0	0	2	66
"MarkovTaskGamblingJ2"	131	1	0	0	0.334	0.296	"e"	"e"	1	1	2	66
"MarkovTaskGamblingJ2"	132	1	1	1	0.374	0.464	"e"	"e"	0	1	2	66
"MarkovTaskGamblingJ2"	133	1	0	1	0.304	0.352	"e"	"i"	0	1	2	66
"MarkovTaskGamblingJ2"	134	1	0	1	0.302	0.484	"e"	"i"	1	1	2	66
"MarkovTaskGamblingJ2"	135	1	1	1	0.317	0.324	"e"	"i"	0	0	2	66
"MarkovTaskGamblingJ2"	136	1	0	0	0.285	0.48	"e"	"i"	0	1	2	66
"MarkovTaskGamblingJ2"	137	1	0	1	0.323	0.397	"e"	"i"	1	1	2	66
"MarkovTaskGamblingJ2"	138	1	1	1	0.303	0.38	"e"	"i"	1	1	2	66
"MarkovTaskGamblingJ2"	139	1	1	1	0.302	0.364	"e"	"i"	1	1	2	66
"MarkovTaskGamblingJ2"	140	1	1	1	0.317	0.413	"e"	"i"	0	0	2	66
"MarkovTaskGamblingJ2"	141	1	0	0	0.272	0.301	"e"	"i"	1	0	2	66
"MarkovTaskGamblingJ2"	142	1	1	0	0.403	0.447	"e"	"i"	0	0	2	66
"MarkovTaskGamblingJ2"	143	1	0	0	0.335	0.331	"e"	"i"	1	1	2	66
"MarkovTaskGamblingJ2"	144	1	1	1	0.369	0.43	"e"	"i"	1	1	2	66
"MarkovTaskGamblingJ2"	145	1	1	1	0.484	0.484	"e"	"i"	0	0	2	66
"MarkovTaskGamblingJ2"	146	1	0	0	0.321	0.264	"e"	"e"	1	1	2	66
"MarkovTaskGamblingJ2"	147	1	1	1	0.451	0.466	"e"	"e"	0	0	2	66
"MarkovTaskGamblingJ2"	148	1	0	0	0.3	0.349	"e"	"i"	0	0	2	66
"MarkovTaskGamblingJ2"	149	0	0	0	0.452	0.247	"i"	"e"	1	1	2	66
"MarkovTaskGamblingJ2"	150	1	1	1	0.419	0.766	"i"	"e"	1	0	2	66
"MarkovTaskGamblingJ2"	151	1	1	0	0.335	0.419	"i"	"e"	1	1	2	66
"MarkovTaskGamblingJ2"	152	1	1	1	0.336	0.481	"i"	"e"	1	0	2	66
"MarkovTaskGamblingJ2"	153	1	1	0	0.301	0.447	"i"	"e"	0	1	2	66
"MarkovTaskGamblingJ2"	154	1	0	1	0.286	0.3	"i"	"e"	1	1	2	66
"MarkovTaskGamblingJ2"	155	1	1	1	0.437	0.43	"i"	"e"	1	1	2	66
"MarkovTaskGamblingJ2"	156	1	1	1	0.369	0.547	"i"	"e"	1	0	2	66
"MarkovTaskGamblingJ2"	157	1	1	0	0.301	0.364	"i"	"e"	0	1	2	66
"MarkovTaskGamblingJ2"	158	1	0	1	0.267	0.297	"i"	"e"	1	1	2	66
"MarkovTaskGamblingJ2"	159	1	1	1	0.369	0.466	"i"	"e"	1	1	2	66
"MarkovTaskGamblingJ2"	160	1	1	1	0.406	0.297	"i"	"e"	0	1	2	66
"MarkovTaskGamblingJ2"	161	1	0	1	0.302	0.312	"i"	"e"	1	1	2	66
"MarkovTaskGamblingJ2"	162	1	1	1	0.317	0.396	"i"	"e"	1	1	2	66
"MarkovTaskGamblingJ2"	163	1	1	1	0.318	0.341	"i"	"e"	0	1	2	66
"MarkovTaskGamblingJ2"	164	1	0	1	0.319	0.315	"i"	"e"	0	1	2	66
"MarkovTaskGamblingJ2"	165	1	0	1	0.305	0.363	"i"	"e"	1	1	2	66
"MarkovTaskGamblingJ2"	166	1	1	1	0.388	0.347	"i"	"e"	0	1	2	66
"MarkovTaskGamblingJ2"	167	1	0	1	0.204	0.396	"i"	"e"	0	1	2	66
"MarkovTaskGamblingJ2"	168	1	0	1	0.272	0.28	"i"	"i"	0	1	2	66
"MarkovTaskGamblingJ2"	169	1	0	1	0.352	0.334	"i"	"e"	0	1	2	66
"MarkovTaskGamblingJ2"	170	0	0	1	0.298	0.313	"e"	"e"	0	1	2	66
"MarkovTaskGamblingJ2"	171	1	0	1	0.27	0.397	"e"	"e"	1	1	2	66
"MarkovTaskGamblingJ2"	172	1	1	1	0.285	0.544	"e"	"i"	0	0	2	66
"MarkovTaskGamblingJ2"	173	1	0	0	0.239	0.364	"e"	"e"	1	1	2	66
"MarkovTaskGamblingJ2"	174	1	1	1	0.319	0.363	"e"	"e"	1	1	2	66
"MarkovTaskGamblingJ2"	175	1	1	1	0.272	0.331	"e"	"e"	1	0	2	66
"MarkovTaskGamblingJ2"	176	1	1	0	0.353	0.366	"e"	"e"	1	1	2	66
"MarkovTaskGamblingJ2"	177	1	1	1	0.252	0.346	"e"	"e"	0	1	2	66
"MarkovTaskGamblingJ2"	178	1	0	1	0.269	0.849	"e"	"e"	1	1	2	66
"MarkovTaskGamblingJ2"	179	1	1	1	0.305	0.43	"e"	"e"	1	1	2	66
"MarkovTaskGamblingJ2"	180	1	1	1	0.287	0.414	"e"	"e"	1	1	2	66
"MarkovTaskGamblingJ2"	181	1	1	1	0.286	0.464	"e"	"e"	1	1	2	66
"MarkovTaskGamblingJ2"	182	1	1	1	0.301	0.467	"e"	"e"	0	1	2	66
"MarkovTaskGamblingJ2"	183	1	0	1	0.335	0.546	"e"	"e"	0	0	2	66
"MarkovTaskGamblingJ2"	184	1	0	0	0.27	0.476	"e"	"e"	0	0	2	66
"MarkovTaskGamblingJ2"	185	1	0	0	0.306	0.347	"e"	"e"	1	1	2	66
"MarkovTaskGamblingJ2"	186	1	1	1	0.286	0.446	"e"	"e"	1	0	2	66
"MarkovTaskGamblingJ2"	187	1	1	0	0.352	0.464	"e"	"e"	0	1	2	66
"MarkovTaskGamblingJ2"	188	1	0	1	0.285	0.38	"e"	"e"	1	0	2	66
"MarkovTaskGamblingJ2"	189	0	1	0	0.351	0.394	"i"	"e"	1	1	2	66
"MarkovTaskGamblingJ2"	190	1	1	1	0.32	0.302	"i"	"e"	1	1	2	66
"MarkovTaskGamblingJ2"	191	1	1	1	0.286	0.314	"i"	"e"	0	1	2	66
"MarkovTaskGamblingJ2"	192	1	0	1	0.268	0.264	"i"	"e"	1	1	2	66
"MarkovTaskGamblingJ2"	193	1	1	1	0.29	0.313	"i"	"e"	1	1	2	66
"MarkovTaskGamblingJ2"	194	1	1	1	0.306	0.314	"i"	"e"	1	1	2	66
"MarkovTaskGamblingJ2"	195	1	1	1	0.421	0.316	"i"	"e"	0	1	2	66
"MarkovTaskGamblingJ2"	196	1	0	1	0.37	0.247	"i"	"e"	0	0	2	66
"MarkovTaskGamblingJ2"	197	1	0	0	0.404	0.53	"i"	"e"	0	0	2	66
"MarkovTaskGamblingJ2"	198	1	0	0	0.368	0.463	"i"	"e"	0	1	2	66
"MarkovTaskGamblingJ2"	199	1	0	1	0.318	0.382	"i"	"e"	1	1	2	66
"MarkovTaskGamblingJ2"	200	1	1	1	0.421	0.314	"i"	"e"	0	1	2	66
"MarkovTaskGamblingJ2"	15	0	0	1	0.34949	0.72985	"e"	"i"	1	1	2	55
"MarkovTaskGamblingJ2"	17	1	1	1	0.71815	1.51417	"e"	"i"	1	1	2	55
"MarkovTaskGamblingJ2"	18	1	1	1	0.380785	1.8649	"e"	"i"	1	1	2	55
"MarkovTaskGamblingJ2"	19	1	1	1	0.33741	1.41184	"e"	"i"	0	1	2	55
"MarkovTaskGamblingJ2"	22	1	1	1	1.81598	1.60959	"i"	"i"	1	1	2	55
"MarkovTaskGamblingJ2"	25	0	0	0	0.36718	1.049125	"i"	"i"	0	1	2	55
"MarkovTaskGamblingJ2"	26	0	0	1	0.33887	0.567955	"e"	"i"	0	0	2	55
"MarkovTaskGamblingJ2"	27	1	0	0	0.56964	0.499925	"e"	"e"	0	1	2	55
"MarkovTaskGamblingJ2"	29	0	0	1	0.353115	0.579355	"e"	"i"	1	1	2	55
"MarkovTaskGamblingJ2"	30	1	1	1	0.505315	0.829905	"e"	"i"	1	0	2	55
"MarkovTaskGamblingJ2"	31	1	1	0	0.369815	1.566495	"e"	"i"	0	1	2	55
"MarkovTaskGamblingJ2"	32	0	0	1	0.447395	0.60052	"i"	"i"	1	1	2	55
"MarkovTaskGamblingJ2"	33	1	1	1	0.45448	0.41247	"i"	"i"	0	0	2	55
"MarkovTaskGamblingJ2"	34	1	0	0	0.697735	0.346755	"i"	"e"	1	1	2	55
"MarkovTaskGamblingJ2"	35	1	1	1	0.353075	0.41522	"i"	"e"	1	0	2	55
"MarkovTaskGamblingJ2"	36	1	1	0	0.211585	0.1977	"i"	"i"	1	0	2	55
"MarkovTaskGamblingJ2"	37	1	1	0	0.65343	0.198985	"i"	"e"	1	1	2	55
"MarkovTaskGamblingJ2"	38	1	1	1	0.23635	0.385805	"i"	"e"	1	1	2	55
"MarkovTaskGamblingJ2"	39	1	1	1	0.235975	0.249415	"i"	"i"	1	1	2	55
"MarkovTaskGamblingJ2"	40	1	1	1	0.24168	0.38342	"i"	"i"	0	1	2	55
"MarkovTaskGamblingJ2"	41	0	0	1	0.096995	0.35314	"e"	"i"	1	1	2	55
"MarkovTaskGamblingJ2"	42	1	1	1	0.217515	0.36511	"e"	"i"	1	1	2	55
"MarkovTaskGamblingJ2"	43	1	1	1	0.21879	0.159425	"e"	"i"	0	1	2	55
"MarkovTaskGamblingJ2"	44	0	0	1	0.21926	0.39702	"i"	"i"	1	1	2	55
"MarkovTaskGamblingJ2"	45	1	1	1	0.200985	0.265075	"i"	"e"	1	1	2	55
"MarkovTaskGamblingJ2"	46	1	1	1	0.20323	0.38046	"i"	"e"	0	0	2	55
"MarkovTaskGamblingJ2"	47	0	0	0	0.182605	0.15118	"e"	"i"	0	0	2	55
"MarkovTaskGamblingJ2"	48	1	0	0	0.233675	0.080725	"e"	"e"	1	1	2	55
"MarkovTaskGamblingJ2"	49	1	1	1	0.2685	0.61382	"e"	"e"	1	1	2	55
"MarkovTaskGamblingJ2"	50	1	1	1	0.25069	0.21429	"e"	"e"	1	0	2	55
"MarkovTaskGamblingJ2"	51	1	1	0	0.128215	0.146425	"e"	"i"	1	1	2	55
"MarkovTaskGamblingJ2"	52	1	1	1	0.200465	0.198525	"e"	"e"	0	1	2	55
"MarkovTaskGamblingJ2"	53	1	0	1	0.250655	0.3338	"e"	"i"	0	1	2	55
"MarkovTaskGamblingJ2"	54	0	0	1	0.00119	0.400115	"i"	"i"	1	1	2	55
"MarkovTaskGamblingJ2"	55	1	1	1	0.101615	0.236575	"i"	"i"	0	0	2	55
"MarkovTaskGamblingJ2"	56	0	0	0	0.034555	0.32989	"e"	"i"	0	1	2	55
"MarkovTaskGamblingJ2"	57	1	0	1	0.239135	0.28277	"e"	"i"	1	1	2	55
"MarkovTaskGamblingJ2"	58	1	1	1	0.251425	0.281385	"e"	"e"	1	1	2	55
"MarkovTaskGamblingJ2"	59	1	1	1	0.18819	0.272	"e"	"e"	0	0	2	55
"MarkovTaskGamblingJ2"	60	0	0	0	0.265	0.197645	"i"	"e"	1	0	2	55
"MarkovTaskGamblingJ2"	61	1	1	0	0.13244	0.25019	"i"	"i"	0	1	2	55
"MarkovTaskGamblingJ2"	62	0	0	1	0.43473	0.546855	"e"	"i"	1	1	2	55
"MarkovTaskGamblingJ2"	63	1	1	1	0.081035	0.27862	"e"	"i"	1	0	2	55
"MarkovTaskGamblingJ2"	64	1	1	0	0.30327	0.450705	"e"	"i"	1	0	2	55
"MarkovTaskGamblingJ2"	65	1	1	0	0.164845	0.068365	"e"	"i"	1	1	2	55
"MarkovTaskGamblingJ2"	66	1	1	1	0.268725	0.21717	"e"	"i"	0	0	2	55
"MarkovTaskGamblingJ2"	67	0	0	0	0.2332	0.21402	"i"	"e"	0	1	2	55
"MarkovTaskGamblingJ2"	68	1	0	1	0.25009	0.031075	"i"	"e"	0	1	2	55
"MarkovTaskGamblingJ2"	69	0	0	1	0.16965	0.367525	"e"	"i"	1	1	2	55
"MarkovTaskGamblingJ2"	70	1	1	1	0.252525	0.150805	"e"	"i"	1	0	2	55
"MarkovTaskGamblingJ2"	71	1	1	0	0.28248	0.150255	"e"	"e"	1	0	2	55
"MarkovTaskGamblingJ2"	72	1	1	0	0.27114	0.247775	"e"	"i"	1	1	2	55
"MarkovTaskGamblingJ2"	73	1	1	1	0.253175	0.465365	"e"	"e"	1	1	2	55
"MarkovTaskGamblingJ2"	74	1	1	1	0.08472	0.286125	"e"	"i"	0	1	2	55
"MarkovTaskGamblingJ2"	75	0	0	1	0.268455	0.301575	"i"	"i"	0	1	2	55
"MarkovTaskGamblingJ2"	76	0	0	1	0.20298	0.265405	"e"	"e"	1	1	2	55
"MarkovTaskGamblingJ2"	77	1	1	1	0.157715	0.41694	"e"	"i"	0	0	2	55
"MarkovTaskGamblingJ2"	78	1	0	0	0.232065	0.399485	"e"	"i"	1	0	2	55
"MarkovTaskGamblingJ2"	79	1	1	0	0.218905	0.32962	"e"	"i"	1	1	2	55
"MarkovTaskGamblingJ2"	80	1	1	1	0.26744	0.14259	"e"	"e"	0	1	2	55
