"ExpName"	"Trial"	"Stay"	"PrReward"	"PrTransition"	"RT1"	"RT2"	"level1_choice"	"level2_choice"	"reward"	"transition"	"Time"	"subjID"
"InstructionMarkovVideoG"	11	1	-1	-1	0.30007	0.41604	2	3	0	1	1	33
"InstructionMarkovVideoG"	12	0	-1	1	0.350795	0.98308	1	1	1	1	1	33
"InstructionMarkovVideoG"	13	1	1	1	0.250615	0.385545	1	1	1	1	1	33
"InstructionMarkovVideoG"	14	1	1	1	0.085115	0.452435	1	3	1	0	1	33
"InstructionMarkovVideoG"	15	1	1	-1	0.10003	0.654905	1	2	1	1	1	33
"InstructionMarkovVideoG"	16	1	1	1	0.304935	0.453465	1	2	0	1	1	33
"InstructionMarkovVideoG"	17	1	-1	1	0.233535	0.76676	1	1	1	1	1	33
"InstructionMarkovVideoG"	18	1	1	1	0.552175	1.06977	1	1	0	1	1	33
"InstructionMarkovVideoG"	19	0	-1	1	0.28456	0.550605	2	4	0	1	1	33
"InstructionMarkovVideoG"	20	1	-1	1	0.270075	0.3832	2	3	1	1	1	33
"InstructionMarkovVideoG"	21	1	1	1	0.301295	0.802065	2	1	0	0	1	33
"InstructionMarkovVideoG"	22	1	-1	-1	0.53243	0.880015	2	2	1	0	1	33
"InstructionMarkovVideoG"	23	1	1	-1	0.20465	0.7819	2	3	0	1	1	33
"InstructionMarkovVideoG"	24	1	-1	1	0.468805	0.70151	2	2	1	0	1	33
"InstructionMarkovVideoG"	25	1	1	-1	0.235105	0.451765	2	2	0	0	1	33
"InstructionMarkovVideoG"	26	1	-1	-1	0.121505	0.88248	2	3	1	1	1	33
"InstructionMarkovVideoG"	27	1	1	1	0.08554	0.6008	2	2	0	0	1	33
"InstructionMarkovVideoG"	28	1	-1	-1	0.48676	0.705625	2	3	1	1	1	33
"InstructionMarkovVideoG"	29	1	1	1	0.284435	0.582365	2	2	0	0	1	33
"InstructionMarkovVideoG"	30	0	-1	-1	0.301505	0.752395	1	1	0	1	1	33
"InstructionMarkovVideoG"	31	1	-1	1	0.53491	0.952075	1	2	1	1	1	33
"InstructionMarkovVideoG"	32	1	1	1	0.06788	0.60012	1	3	1	0	1	33
"InstructionMarkovVideoG"	33	1	1	-1	0.25062	0.75152	1	3	0	0	1	33
"InstructionMarkovVideoG"	34	1	-1	-1	0.15581	0.767685	1	2	1	1	1	33
"InstructionMarkovVideoG"	35	1	1	1	0.332945	0.534205	1	3	1	0	1	33
"InstructionMarkovVideoG"	36	1	1	-1	0.283935	0.51763	1	2	1	1	1	33
"InstructionMarkovVideoG"	37	1	1	1	0.299545	0.735	1	2	0	1	1	33
"InstructionMarkovVideoG"	38	1	-1	1	0.282855	0.584905	1	1	0	1	1	33
"InstructionMarkovVideoG"	39	1	-1	1	0.31754	1.250505	1	2	1	1	1	33
"InstructionMarkovVideoG"	40	1	1	1	0.320275	0.894735	1	1	0	1	1	33
"InstructionMarkovVideoG"	41	1	-1	1	0.18249	0.501025	1	2	0	1	1	33
"InstructionMarkovVideoG"	42	0	-1	1	0.25231	0.652355	2	1	1	0	1	33
"InstructionMarkovVideoG"	43	1	1	-1	0.02201	0.637685	2	4	0	1	1	33
"InstructionMarkovVideoG"	44	1	-1	1	0.20107	0.38564	2	3	0	1	1	33
"InstructionMarkovVideoG"	45	1	-1	1	0.1013	0.903535	2	1	0	0	1	33
"InstructionMarkovVideoG"	46	1	-1	-1	0.06708	0.5024	2	1	0	0	1	33
"InstructionMarkovVideoG"	47	1	-1	-1	0.11956	0.583445	2	4	0	1	1	33
"InstructionMarkovVideoG"	48	1	-1	1	0.117245	1.003595	2	3	0	1	1	33
"InstructionMarkovVideoG"	49	1	-1	1	0.10028	0.76848	2	2	0	0	1	33
"InstructionMarkovVideoG"	50	1	-1	-1	0.184355	0.470115	2	1	1	0	1	33
"InstructionMarkovVideoG"	51	1	1	-1	0.232415	0.384765	2	1	0	0	1	33
"InstructionMarkovVideoG"	52	1	-1	-1	0.252205	0.750585	2	1	1	0	1	33
"InstructionMarkovVideoG"	53	0	1	-1	0.37174	0.3823	1	2	0	1	1	33
"InstructionMarkovVideoG"	54	1	-1	1	0.351805	0.401675	1	1	0	1	1	33
"InstructionMarkovVideoG"	55	1	-1	1	0.157645	0.617935	1	1	0	1	1	33
"InstructionMarkovVideoG"	56	1	-1	1	0.183905	0.967435	1	3	1	0	1	33
"InstructionMarkovVideoG"	57	1	1	-1	0.251825	0.63541	1	2	1	1	1	33
"InstructionMarkovVideoG"	58	1	1	1	0.21841	0.383415	1	3	1	0	1	33
"InstructionMarkovVideoG"	59	1	1	-1	0.56896	1.334975	1	2	1	1	1	33
"InstructionMarkovVideoG"	60	1	1	1	0.4863	0.484155	1	1	1	1	1	33
"InstructionMarkovVideoG"	61	1	1	1	0.31721	0.66657	1	1	0	1	1	33
"InstructionMarkovVideoG"	62	1	-1	1	0.28499	0.600505	1	2	0	1	1	33
"InstructionMarkovVideoG"	63	1	-1	1	0.084965	0.685215	1	4	1	0	1	33
"InstructionMarkovVideoG"	64	1	1	-1	0.25093	0.514095	1	1	1	1	1	33
"InstructionMarkovVideoG"	65	1	1	1	0.237775	0.469525	1	1	1	1	1	33
"InstructionMarkovVideoG"	66	1	1	1	0.100805	0.518325	1	1	0	1	1	33
"InstructionMarkovVideoG"	67	1	-1	1	0.23515	0.58946	1	4	0	0	1	33
"InstructionMarkovVideoG"	68	1	-1	-1	0.184185	0.399905	1	1	0	1	1	33
"InstructionMarkovVideoG"	69	1	-1	1	0.11653	0.36909	1	1	1	1	1	33
"InstructionMarkovVideoG"	70	1	1	1	0.18465	0.36929	1	4	1	0	1	33
"InstructionMarkovVideoG"	71	1	1	-1	0.16753	0.4031	1	1	1	1	1	33
"InstructionMarkovVideoG"	72	1	1	1	0.21739	0.413795	1	2	1	1	1	33
"InstructionMarkovVideoG"	73	1	1	1	0.267805	1.319835	1	1	1	1	1	33
"InstructionMarkovVideoG"	74	1	1	1	0.417265	0.50161	1	1	0	1	1	33
"InstructionMarkovVideoG"	75	1	-1	1	0.36934	0.449335	1	1	1	1	1	33
"InstructionMarkovVideoG"	76	1	1	1	0.317415	0.453835	1	1	1	1	1	33
"InstructionMarkovVideoG"	77	1	1	1	0.249845	0.48501	1	1	0	1	1	33
"InstructionMarkovVideoG"	78	1	-1	1	0.20099	0.871185	1	1	0	1	1	33
"InstructionMarkovVideoG"	79	1	-1	1	0.15193	0.418345	1	1	0	1	1	33
"InstructionMarkovVideoG"	80	1	-1	1	0.21641	1.036035	1	4	1	0	1	33
"InstructionMarkovVideoG"	81	1	1	-1	0.138435	0.55203	1	1	1	1	1	33
"InstructionMarkovVideoG"	82	1	1	1	0.45299	0.634305	1	4	1	0	1	33
"InstructionMarkovVideoG"	83	1	1	-1	0.184875	0.518055	1	1	0	1	1	33
"InstructionMarkovVideoG"	84	1	-1	1	0.42034	0.552475	1	1	0	1	1	33
"InstructionMarkovVideoG"	85	0	-1	1	0.25401	0.56812	2	4	1	1	1	33
"InstructionMarkovVideoG"	86	1	1	1	0.26763	0.350105	2	1	1	0	1	33
"InstructionMarkovVideoG"	87	1	1	-1	0.17201	0.733965	2	4	0	1	1	33
"InstructionMarkovVideoG"	88	1	-1	1	0.33347	0.418585	2	4	1	1	1	33
"InstructionMarkovVideoG"	89	1	1	1	0.23358	0.535815	2	1	0	0	1	33
"InstructionMarkovVideoG"	90	1	-1	-1	0.400105	0.73632	2	4	1	1	1	33
"InstructionMarkovVideoG"	91	1	1	1	0.23793	0.534275	2	4	0	1	1	33
"InstructionMarkovVideoG"	92	1	-1	1	0.001905	0.435875	2	4	0	1	1	33
"InstructionMarkovVideoG"	93	1	-1	1	0.20028	0.436625	2	1	0	0	1	33
"InstructionMarkovVideoG"	94	1	-1	-1	0.334575	0.5002	2	2	0	0	1	33
"InstructionMarkovVideoG"	95	0	-1	-1	0.35306	0.31866	1	2	1	1	1	33
"InstructionMarkovVideoG"	96	1	1	1	0.30356	0.40184	1	2	0	1	1	33
"InstructionMarkovVideoG"	97	1	-1	1	0.184965	0.73585	1	2	1	1	1	33
"InstructionMarkovVideoG"	98	1	1	1	0.137885	0.351435	1	3	1	0	1	33
"InstructionMarkovVideoG"	99	1	1	-1	0.13369	0.417595	1	3	1	0	1	33
"InstructionMarkovVideoG"	100	1	1	-1	0.13777	0.5674	1	2	0	1	1	33
"InstructionMarkovVideoG"	101	1	-1	1	0.0505	0.7346	1	2	1	1	1	33
"InstructionMarkovVideoG"	102	1	1	1	0.184665	0.501425	1	1	0	1	1	33
"InstructionMarkovVideoG"	103	1	-1	1	0.372145	0.417095	1	1	1	1	1	33
"InstructionMarkovVideoG"	104	1	1	1	0.300715	0.56861	1	4	1	0	1	33
"InstructionMarkovVideoG"	105	1	1	-1	0.14985	0.985195	1	1	1	1	1	33
"InstructionMarkovVideoG"	106	1	1	1	0.118305	0.401055	1	1	0	1	1	33
"InstructionMarkovVideoG"	107	1	-1	1	0.30561	0.499585	1	1	0	1	1	33
"InstructionMarkovVideoG"	108	1	-1	1	0.134305	0.51832	1	1	0	1	1	33
"InstructionMarkovVideoG"	109	1	-1	1	0.19994	0.50052	1	1	0	1	1	33
"InstructionMarkovVideoG"	110	1	-1	1	0.250035	0.43582	1	1	1	1	1	33
"InstructionMarkovVideoG"	111	1	1	1	0.304955	0.65177	1	1	0	1	1	33
"InstructionMarkovVideoG"	112	1	-1	1	0.39865	1.735	1	4	0	0	1	33
"InstructionMarkovVideoG"	113	1	-1	-1	0.255625	0.303315	1	1	0	1	1	33
"InstructionMarkovVideoG"	114	1	-1	1	0.121215	0.620015	1	2	1	1	1	33
"InstructionMarkovVideoG"	115	1	1	1	0.402145	0.55162	1	3	1	0	1	33
"InstructionMarkovVideoG"	116	1	1	-1	0.069405	0.40313	1	2	1	1	1	33
"InstructionMarkovVideoG"	117	1	1	1	0.10164	0.56925	1	4	0	0	1	33
"InstructionMarkovVideoG"	118	1	-1	-1	0.00109	0.418645	1	4	0	0	1	33
"InstructionMarkovVideoG"	119	1	-1	-1	0.23468	0.38596	1	1	1	1	1	33
"InstructionMarkovVideoG"	120	1	1	1	0.251595	0.453215	1	3	0	0	1	33
"InstructionMarkovVideoG"	121	1	-1	-1	0.366305	0.53412	1	1	1	1	1	33
"InstructionMarkovVideoG"	122	1	1	1	0.335	0.61727	1	2	0	1	1	33
"InstructionMarkovVideoG"	123	0	-1	1	0.316415	0.56881	2	3	0	1	1	33
"InstructionMarkovVideoG"	124	1	-1	1	0.30385	0.551555	2	4	1	1	1	33
"InstructionMarkovVideoG"	125	1	1	1	0.01802	0.337855	2	4	1	1	1	33
"InstructionMarkovVideoG"	126	1	1	1	0.101755	0.40377	2	1	0	0	1	33
"InstructionMarkovVideoG"	127	1	-1	-1	0.234975	0.516095	2	4	1	1	1	33
"InstructionMarkovVideoG"	128	1	1	1	0.269905	0.43536	2	4	1	1	1	33
"InstructionMarkovVideoG"	129	1	1	1	0.216845	0.45108	2	1	0	0	1	33
"InstructionMarkovVideoG"	130	1	-1	-1	0.31637	0.334475	2	4	0	1	1	33
"InstructionMarkovVideoG"	131	1	-1	1	0.21807	0.382945	2	4	1	1	1	33
"InstructionMarkovVideoG"	132	1	1	1	0.18939	0.40261	2	1	0	0	1	33
"InstructionMarkovVideoG"	133	1	-1	-1	0.05072	0.43527	2	4	1	1	1	33
"InstructionMarkovVideoG"	134	1	1	1	0.13572	0.38533	2	1	1	0	1	33
"InstructionMarkovVideoG"	135	1	1	-1	0.151045	0.41877	2	4	1	1	1	33
"InstructionMarkovVideoG"	136	1	1	1	0.282985	0.486975	2	1	1	0	1	33
"InstructionMarkovVideoG"	137	1	1	-1	0.234455	0.3558	2	4	0	1	1	33
"InstructionMarkovVideoG"	138	1	-1	1	0.383505	1.017605	2	1	1	0	1	33
"InstructionMarkovVideoG"	139	1	1	-1	0.26674	0.518375	2	4	0	1	1	33
"InstructionMarkovVideoG"	140	1	-1	1	0.18373	0.387055	2	1	0	0	1	33
"InstructionMarkovVideoG"	141	1	-1	-1	0.36759	0.6165	2	1	1	0	1	33
"InstructionMarkovVideoG"	142	1	1	-1	0.318085	0.36795	2	4	1	1	1	33
"InstructionMarkovVideoG"	143	1	1	1	0.23381	0.550925	2	4	1	1	1	33
"InstructionMarkovVideoG"	144	1	1	1	0.26846	0.4853	2	4	1	1	1	33
"InstructionMarkovVideoG"	145	1	1	1	0.33405	0.35162	2	1	0	0	1	33
"InstructionMarkovVideoG"	146	1	-1	-1	0.200275	0.318925	2	4	1	1	1	33
"InstructionMarkovVideoG"	147	1	1	1	0.43622	0.350995	2	4	1	1	1	33
"InstructionMarkovVideoG"	148	1	1	1	0.204495	0.38571	2	4	1	1	1	33
"InstructionMarkovVideoG"	149	1	1	1	0.22171	0.38547	2	4	1	1	1	33
"InstructionMarkovVideoG"	150	1	1	1	0.30161	0.401835	2	1	1	0	1	33
"InstructionMarkovVideoG"	151	1	1	-1	0.217615	0.401595	2	4	1	1	1	33
"InstructionMarkovVideoG"	152	1	1	1	0.30571	0.385245	2	4	0	1	1	33
"InstructionMarkovVideoG"	153	1	-1	1	0.16739	0.41928	2	4	0	1	1	33
"InstructionMarkovVideoG"	154	1	-1	1	0.184205	0.41904	2	4	0	1	1	33
"InstructionMarkovVideoG"	155	1	-1	1	0.00179	0.44919	2	1	1	0	1	33
"InstructionMarkovVideoG"	156	1	1	-1	0.40152	0.53179	2	4	0	1	1	33
"InstructionMarkovVideoG"	157	1	-1	1	0.30415	0.368845	2	4	0	1	1	33
"InstructionMarkovVideoG"	158	1	-1	1	0.23629	0.352045	2	4	0	1	1	33
"InstructionMarkovVideoG"	159	1	-1	1	0.18743	0.399525	2	4	0	1	1	33
"InstructionMarkovVideoG"	160	1	-1	1	0.28403	0.41729	2	1	0	0	1	33
"InstructionMarkovVideoG"	161	1	-1	-1	0.12019	0.38377	2	4	0	1	1	33
"InstructionMarkovVideoG"	162	0	-1	1	0.29951	0.71806	1	1	0	1	1	33
"InstructionMarkovVideoG"	163	1	-1	1	0.28374	0.58399	1	4	0	0	1	33
"InstructionMarkovVideoG"	164	1	-1	-1	0.285865	0.665965	1	2	1	1	1	33
"InstructionMarkovVideoG"	165	1	1	1	0.234725	0.501595	1	2	0	1	1	33
"InstructionMarkovVideoG"	166	1	-1	1	0.1685	0.385765	1	1	1	1	1	33
"InstructionMarkovVideoG"	167	1	1	1	0.183935	1.11792	1	2	1	1	1	33
"InstructionMarkovVideoG"	168	1	1	1	0.26863	0.770115	1	3	0	0	1	33
"InstructionMarkovVideoG"	169	1	-1	-1	0.150255	0.651	1	3	0	0	1	33
"InstructionMarkovVideoG"	170	1	-1	-1	0.068295	0.41843	1	3	1	0	1	33
"InstructionMarkovVideoG"	171	1	1	-1	0.31755	0.4012	1	2	1	1	1	33
"InstructionMarkovVideoG"	172	1	1	1	0.001415	0.30108	1	3	0	0	1	33
"InstructionMarkovVideoG"	173	1	-1	-1	0.41805	0.56662	1	2	0	1	1	33
"InstructionMarkovVideoG"	174	0	-1	1	0.27425	0.40128	2	4	0	1	1	33
"InstructionMarkovVideoG"	175	1	-1	1	0.10077	0.40054	2	4	0	1	1	33
"InstructionMarkovVideoG"	176	1	-1	1	0.150865	0.551485	2	4	1	1	1	33
"InstructionMarkovVideoG"	177	1	1	1	0.38465	0.38632	2	4	0	1	1	33
"InstructionMarkovVideoG"	178	1	-1	1	0.267305	0.37154	2	4	1	1	1	33
"InstructionMarkovVideoG"	179	1	1	1	0.30092	0.35186	2	1	0	0	1	33
"InstructionMarkovVideoG"	180	1	-1	-1	0.08523	0.451875	2	3	1	1	1	33
"InstructionMarkovVideoG"	181	1	1	1	0.235755	0.40041	2	4	0	1	1	33
"InstructionMarkovVideoG"	182	1	-1	1	0.087155	0.321555	2	3	1	1	1	33
"InstructionMarkovVideoG"	183	1	1	1	0.183375	0.319275	2	3	1	1	1	33
"InstructionMarkovVideoG"	184	1	1	1	0.133045	0.53485	2	2	1	0	1	33
"InstructionMarkovVideoG"	185	1	1	-1	0.150415	0.33445	2	3	0	1	1	33
"InstructionMarkovVideoG"	186	1	-1	1	0.15457	0.284915	2	1	0	0	1	33
"InstructionMarkovVideoG"	187	1	-1	-1	0.137435	0.234655	2	4	1	1	1	33
"InstructionMarkovVideoG"	188	1	1	1	0.43562	0.60045	2	1	1	0	1	33
"InstructionMarkovVideoG"	189	1	1	-1	0.300045	0.58384	2	1	0	0	1	33
"InstructionMarkovVideoG"	190	1	-1	-1	0.01622	0.268105	2	2	1	0	1	33
"InstructionMarkovVideoG"	191	1	1	-1	0.33676	0.40214	2	3	0	1	1	33
"InstructionMarkovVideoG"	192	1	-1	1	0.351295	0.36825	2	3	1	1	1	33
"InstructionMarkovVideoG"	193	1	1	1	0.1345	0.4026	2	3	0	1	1	33
"InstructionMarkovVideoG"	194	1	-1	1	0.30098	0.3193	2	3	0	1	1	33
"InstructionMarkovVideoG"	195	1	-1	1	0.36628	1.052235	2	3	0	1	1	33
"InstructionMarkovVideoG"	196	1	-1	1	0.271845	0.2846	2	3	0	1	1	33
"InstructionMarkovVideoG"	197	1	-1	1	0.23619	0.63481	2	4	0	1	1	33
"InstructionMarkovVideoG"	198	1	-1	1	0.28327	0.46934	2	4	0	1	1	33
"InstructionMarkovVideoG"	199	1	-1	1	0.283925	0.0842	2	3	0	1	1	33
"InstructionMarkovVideoG"	200	0	-1	1	0.402585	0.36758	1	4	0	0	1	33
"InstructionMarkovVideoG"	11	1	1	1	1.025	0.569175	1	3	0	0	1	35
"InstructionMarkovVideoG"	12	1	-1	-1	0.561045	0.875865	1	4	0	0	1	35
"InstructionMarkovVideoG"	13	1	-1	-1	0.583515	0.86448	1	1	1	1	1	35
"InstructionMarkovVideoG"	14	1	1	1	0.82892	0.556165	1	4	0	0	1	35
"InstructionMarkovVideoG"	15	1	-1	-1	0.365185	0.55158	1	4	0	0	1	35
"InstructionMarkovVideoG"	17	1	1	1	0.445515	1.82869	1	1	1	1	1	35
"InstructionMarkovVideoG"	20	0	1	1	0.460875	0.85141	2	4	0	1	1	35
"InstructionMarkovVideoG"	22	1	1	-1	0.667975	0.947535	2	4	1	1	1	35
"InstructionMarkovVideoG"	23	1	1	1	1.578325	1.547875	2	3	1	1	1	35
"InstructionMarkovVideoG"	25	1	-1	-1	1.04976	1.447095	2	4	1	1	1	35
"InstructionMarkovVideoG"	27	1	1	-1	1.13755	1.268845	2	3	0	1	1	35
"InstructionMarkovVideoG"	28	1	-1	1	0.40098	1.257635	2	1	1	0	1	35
"InstructionMarkovVideoG"	30	1	1	1	0.91849	1.67481	2	4	0	1	1	35
"InstructionMarkovVideoG"	31	1	-1	1	1.4388	1.286465	2	4	0	1	1	35
"InstructionMarkovVideoG"	32	1	-1	1	0.53005	1.83781	2	2	1	0	1	35
"InstructionMarkovVideoG"	33	1	1	-1	0.523115	0.75137	2	4	1	1	1	35
"InstructionMarkovVideoG"	34	1	1	1	0.983675	1.20116	2	1	1	0	1	35
"InstructionMarkovVideoG"	35	1	1	-1	0.45602	1.20635	2	3	1	1	1	35
"InstructionMarkovVideoG"	36	1	1	1	0.61295	1.709305	2	1	0	0	1	35
"InstructionMarkovVideoG"	37	1	-1	-1	0.408455	1.07298	2	4	0	1	1	35
"InstructionMarkovVideoG"	39	1	-1	1	0.410955	0.67509	2	4	0	1	1	35
"InstructionMarkovVideoG"	40	1	-1	1	0.486685	0.548155	2	4	0	1	1	35
"InstructionMarkovVideoG"	41	1	-1	1	0.333725	0.767855	2	4	1	1	1	35
"InstructionMarkovVideoG"	42	1	1	1	0.616775	1.68057	2	4	1	1	1	35
"InstructionMarkovVideoG"	43	1	1	1	0.97892	1.45289	2	3	0	1	1	35
"InstructionMarkovVideoG"	44	1	-1	1	0.4672	1.583615	2	1	1	0	1	35
"InstructionMarkovVideoG"	45	1	1	-1	0.52723	0.682965	2	4	0	1	1	35
"InstructionMarkovVideoG"	46	1	-1	1	0.42224	0.606425	2	3	1	1	1	35
"InstructionMarkovVideoG"	47	1	1	1	0.588535	0.71819	2	3	0	1	1	35
"InstructionMarkovVideoG"	48	1	-1	1	0.39209	0.99277	2	2	0	0	1	35
"InstructionMarkovVideoG"	49	1	-1	-1	0.38444	1.347405	2	3	1	1	1	35
"InstructionMarkovVideoG"	51	1	1	-1	0.37425	1.04803	2	4	1	1	1	35
"InstructionMarkovVideoG"	52	1	1	1	0.42871	1.381385	2	3	0	1	1	35
"InstructionMarkovVideoG"	53	1	-1	1	0.41992	1.06833	2	4	1	1	1	35
"InstructionMarkovVideoG"	55	1	-1	1	0.410425	0.875145	2	4	1	1	1	35
"InstructionMarkovVideoG"	56	1	1	1	0.40699	1.17535	2	4	1	1	1	35
"InstructionMarkovVideoG"	57	1	1	1	0.6793	1.301175	2	3	1	1	1	35
"InstructionMarkovVideoG"	60	1	-1	-1	0.71675	0.480805	1	4	1	0	1	35
"InstructionMarkovVideoG"	61	1	1	-1	0.507195	0.89748	1	4	0	0	1	35
"InstructionMarkovVideoG"	63	1	1	1	0.46236	1.389	1	4	1	0	1	35
"InstructionMarkovVideoG"	64	1	1	-1	0.572915	1.486575	1	3	1	0	1	35
"InstructionMarkovVideoG"	67	1	-1	1	0.37361	0.66397	1	1	1	1	1	35
"InstructionMarkovVideoG"	68	1	1	1	0.42747	0.594915	1	1	0	1	1	35
"InstructionMarkovVideoG"	69	1	-1	1	0.434905	0.530305	1	2	1	1	1	35
"InstructionMarkovVideoG"	70	1	1	1	0.37072	1.524585	1	4	0	0	1	35
"InstructionMarkovVideoG"	71	1	-1	-1	0.3585	0.768645	1	1	0	1	1	35
"InstructionMarkovVideoG"	72	1	-1	1	0.64106	1.192355	1	4	1	0	1	35
"InstructionMarkovVideoG"	73	1	1	-1	0.51173	1.219335	1	1	1	1	1	35
"InstructionMarkovVideoG"	74	1	1	1	0.57812	0.827875	1	2	0	1	1	35
"InstructionMarkovVideoG"	75	1	-1	1	0.34593	0.48539	1	1	1	1	1	35
"InstructionMarkovVideoG"	76	1	1	1	0.57619	0.89845	1	1	1	1	1	35
"InstructionMarkovVideoG"	77	1	1	1	0.484775	0.434035	1	2	1	1	1	35
"InstructionMarkovVideoG"	78	1	1	1	0.559005	1.289645	1	4	0	0	1	35
"InstructionMarkovVideoG"	79	1	-1	-1	0.381115	0.902965	1	1	1	1	1	35
"InstructionMarkovVideoG"	81	1	-1	1	0.380885	0.670825	1	1	1	1	1	35
"InstructionMarkovVideoG"	82	1	1	1	0.41082	0.851195	1	4	1	0	1	35
"InstructionMarkovVideoG"	83	1	1	-1	0.575935	0.96201	1	4	1	0	1	35
"InstructionMarkovVideoG"	84	1	1	-1	0.4742	1.40827	1	3	0	0	1	35
"InstructionMarkovVideoG"	85	1	-1	-1	0.302825	0.635255	1	1	1	1	1	35
"InstructionMarkovVideoG"	86	1	1	1	0.3606	0.827645	1	1	1	1	1	35
"InstructionMarkovVideoG"	87	1	1	1	0.40893	1.8974	1	3	1	0	1	35
"InstructionMarkovVideoG"	88	1	1	-1	0.500395	1.81692	1	3	0	0	1	35
"InstructionMarkovVideoG"	89	1	-1	-1	1.031235	1.23914	1	2	1	1	1	35
"InstructionMarkovVideoG"	90	1	1	1	0.436485	0.82785	1	2	0	1	1	35
"InstructionMarkovVideoG"	91	1	-1	1	0.40173	1.114045	1	4	0	0	1	35
"InstructionMarkovVideoG"	92	1	-1	-1	0.34002	0.583265	1	1	0	1	1	35
"InstructionMarkovVideoG"	93	1	-1	1	0.66244	0.83703	1	4	0	0	1	35
"InstructionMarkovVideoG"	94	1	-1	-1	0.32225	0.45408	1	3	0	0	1	35
"InstructionMarkovVideoG"	95	1	-1	-1	0.51461	0.815075	1	4	1	0	1	35
"InstructionMarkovVideoG"	96	1	1	-1	0.389215	0.37402	1	2	1	1	1	35
"InstructionMarkovVideoG"	97	1	1	1	0.43773	0.637165	1	1	0	1	1	35
"InstructionMarkovVideoG"	98	1	-1	1	0.688355	0.48753	1	1	1	1	1	35
"InstructionMarkovVideoG"	99	1	1	1	0.466925	0.41701	1	1	0	1	1	35
"InstructionMarkovVideoG"	100	1	-1	1	0.366925	0.680645	1	4	0	0	1	35
"InstructionMarkovVideoG"	102	1	-1	1	0.872745	1.134465	1	3	0	0	1	35
"InstructionMarkovVideoG"	103	1	-1	-1	0.39177	0.50496	1	1	1	1	1	35
"InstructionMarkovVideoG"	104	1	1	1	0.363295	1.789855	1	3	0	0	1	35
"InstructionMarkovVideoG"	105	1	-1	-1	0.4372	0.404775	1	1	0	1	1	35
"InstructionMarkovVideoG"	106	1	-1	1	0.379055	1.917155	1	2	1	1	1	35
"InstructionMarkovVideoG"	107	1	1	1	0.695165	0.57239	1	4	0	0	1	35
"InstructionMarkovVideoG"	108	1	-1	-1	0.36411	1.182485	1	4	1	0	1	35
"InstructionMarkovVideoG"	110	1	-1	1	0.33895	1.26371	1	4	1	0	1	35
"InstructionMarkovVideoG"	111	1	1	-1	0.43434	1.225465	1	3	0	0	1	35
"InstructionMarkovVideoG"	112	1	-1	-1	1.231535	1.103325	1	1	1	1	1	35
"InstructionMarkovVideoG"	113	1	1	1	1.30614	0.67118	1	1	1	1	1	35
"InstructionMarkovVideoG"	114	0	1	1	1.466495	0.880935	2	4	0	1	1	35
"InstructionMarkovVideoG"	115	1	-1	1	0.388955	1.669625	2	1	0	0	1	35
"InstructionMarkovVideoG"	116	1	-1	-1	0.681815	0.62365	2	4	1	1	1	35
"InstructionMarkovVideoG"	118	1	-1	1	0.356595	0.4474	1	2	0	1	1	35
"InstructionMarkovVideoG"	119	1	-1	1	0.395375	1.19716	1	4	1	0	1	35
"InstructionMarkovVideoG"	120	1	1	-1	0.43499	1.217945	1	1	1	1	1	35
"InstructionMarkovVideoG"	124	1	-1	1	0.32795	1.31597	1	4	1	0	1	35
"InstructionMarkovVideoG"	125	1	1	-1	0.429965	0.83784	1	1	1	1	1	35
"InstructionMarkovVideoG"	126	0	1	1	0.47532	1.01693	2	4	1	1	1	35
"InstructionMarkovVideoG"	127	0	1	1	0.73492	1.634155	1	2	1	1	1	35
"InstructionMarkovVideoG"	128	0	1	1	0.41698	0.70345	2	3	1	1	1	35
"InstructionMarkovVideoG"	129	0	1	1	0.69815	1.48061	1	1	1	1	1	35
"InstructionMarkovVideoG"	132	0	1	1	0.385585	0.93911	1	1	1	1	1	35
"InstructionMarkovVideoG"	133	0	1	1	0.37192	1.678065	2	4	0	1	1	35
"InstructionMarkovVideoG"	134	0	-1	1	0.81054	1.97071	1	2	1	1	1	35
"InstructionMarkovVideoG"	135	0	1	1	0.387005	0.75643	2	4	0	1	1	35
"InstructionMarkovVideoG"	137	1	-1	-1	0.643495	1.650895	1	2	1	1	1	35
"InstructionMarkovVideoG"	138	0	1	1	0.99148	0.84057	2	4	0	1	1	35
"InstructionMarkovVideoG"	139	0	-1	1	0.62206	0.950205	1	4	0	0	1	35
"InstructionMarkovVideoG"	140	1	-1	-1	0.37459	1.33653	1	1	1	1	1	35
"InstructionMarkovVideoG"	145	1	1	-1	0.557425	1.624345	2	3	0	1	1	35
"InstructionMarkovVideoG"	146	1	-1	1	0.76695	0.41617	2	4	0	1	1	35
"InstructionMarkovVideoG"	147	1	-1	1	0.342215	0.409365	2	4	0	1	1	35
"InstructionMarkovVideoG"	148	1	-1	1	0.343525	1.440145	2	1	1	0	1	35
"InstructionMarkovVideoG"	149	1	1	-1	0.343815	0.50745	2	4	0	1	1	35
"InstructionMarkovVideoG"	150	1	-1	1	0.421815	0.861745	2	4	1	1	1	35
"InstructionMarkovVideoG"	151	1	1	1	1.31415	0.50317	2	4	1	1	1	35
"InstructionMarkovVideoG"	152	1	1	1	0.545375	0.532905	2	4	1	1	1	35
"InstructionMarkovVideoG"	153	1	1	1	0.49385	0.62727	2	4	0	1	1	35
"InstructionMarkovVideoG"	154	1	-1	1	0.72861	0.900815	2	3	1	1	1	35
"InstructionMarkovVideoG"	156	1	-1	-1	0.527615	0.875525	1	4	1	0	1	35
"InstructionMarkovVideoG"	157	1	1	-1	0.343625	1.003085	1	4	1	0	1	35
"InstructionMarkovVideoG"	158	1	1	-1	0.337095	1.220295	1	1	1	1	1	35
"InstructionMarkovVideoG"	159	1	1	1	0.514435	1.318925	1	2	0	1	1	35
"InstructionMarkovVideoG"	160	1	-1	1	0.353035	1.491655	1	3	1	0	1	35
"InstructionMarkovVideoG"	161	1	1	-1	0.400065	0.983565	1	1	1	1	1	35
"InstructionMarkovVideoG"	162	1	1	1	0.4631	0.414575	1	2	1	1	1	35
"InstructionMarkovVideoG"	163	1	1	1	1.162955	1.398005	1	1	0	1	1	35
"InstructionMarkovVideoG"	164	1	-1	1	0.42857	0.588415	1	2	0	1	1	35
"InstructionMarkovVideoG"	165	1	-1	1	0.331595	0.38334	1	1	0	1	1	35
"InstructionMarkovVideoG"	166	1	-1	1	0.39038	0.92781	1	2	1	1	1	35
"InstructionMarkovVideoG"	167	0	1	1	0.337965	0.573155	2	3	1	1	1	35
"InstructionMarkovVideoG"	168	1	1	1	0.404575	0.605175	2	4	0	1	1	35
"InstructionMarkovVideoG"	169	0	-1	1	0.411595	0.87633	1	3	0	0	1	35
"InstructionMarkovVideoG"	170	0	-1	-1	0.36812	0.51426	2	3	0	1	1	35
"InstructionMarkovVideoG"	171	1	-1	1	0.323735	0.383345	2	2	1	0	1	35
"InstructionMarkovVideoG"	172	0	1	-1	0.326485	0.394385	1	1	0	1	1	35
"InstructionMarkovVideoG"	173	0	-1	1	0.33733	1.4927	2	1	0	0	1	35
"InstructionMarkovVideoG"	174	0	-1	-1	0.44818	0.58358	1	1	1	1	1	35
"InstructionMarkovVideoG"	175	0	1	1	0.40026	0.686685	2	3	0	1	1	35
"InstructionMarkovVideoG"	176	0	-1	1	0.35397	0.97249	1	4	0	0	1	35
"InstructionMarkovVideoG"	177	1	-1	-1	1.18833	0.80581	1	1	1	1	1	35
"InstructionMarkovVideoG"	178	0	1	1	0.333405	0.768055	2	3	0	1	1	35
"InstructionMarkovVideoG"	179	0	-1	1	1.11143	0.85232	1	4	0	0	1	35
"InstructionMarkovVideoG"	180	0	-1	-1	0.63346	1.2241	2	1	1	0	1	35
"InstructionMarkovVideoG"	181	1	1	-1	0.36692	0.680945	2	4	1	1	1	35
"InstructionMarkovVideoG"	182	1	1	1	1.25145	0.626185	2	4	0	1	1	35
"InstructionMarkovVideoG"	183	0	-1	1	0.47978	0.781535	1	1	1	1	1	35
"InstructionMarkovVideoG"	184	0	1	1	0.62879	1.10923	2	1	0	0	1	35
"InstructionMarkovVideoG"	185	1	-1	-1	0.4005	0.4974	2	4	0	1	1	35
"InstructionMarkovVideoG"	186	0	-1	1	0.354445	0.604785	1	1	1	1	1	35
"InstructionMarkovVideoG"	188	0	-1	-1	0.35796	0.81568	1	4	1	0	1	35
"InstructionMarkovVideoG"	189	1	1	-1	0.357845	0.520575	1	3	1	0	1	35
"InstructionMarkovVideoG"	190	0	1	-1	0.57824	0.643985	2	4	0	1	1	35
"InstructionMarkovVideoG"	191	0	-1	1	0.40964	0.56973	1	1	0	1	1	35
"InstructionMarkovVideoG"	192	0	-1	1	0.47361	1.66384	2	3	1	1	1	35
"InstructionMarkovVideoG"	194	1	1	-1	0.383805	1.48795	1	4	0	0	1	35
"InstructionMarkovVideoG"	196	1	1	1	0.636075	0.6195	1	2	0	1	1	35
"InstructionMarkovVideoG"	197	1	-1	1	0.36133	0.30823	1	1	0	1	1	35
"InstructionMarkovVideoG"	198	0	-1	1	1.014065	1.015165	2	1	1	0	1	35
"InstructionMarkovVideoG"	199	1	1	-1	0.524915	1.856715	2	4	1	1	1	35
"InstructionMarkovVideoG"	12	1	-1	-1	0.440445	0.508435	1	1	1	1	1	45
"InstructionMarkovVideoG"	13	1	1	1	0.53582	0.44159	1	1	0	1	1	45
"InstructionMarkovVideoG"	14	1	-1	1	0.512865	0.542625	1	1	1	1	1	45
"InstructionMarkovVideoG"	15	1	1	1	0.452025	0.83174	1	4	1	0	1	45
"InstructionMarkovVideoG"	16	1	1	-1	0.451295	0.59557	1	1	0	1	1	45
"InstructionMarkovVideoG"	17	0	-1	1	0.742575	0.765575	2	1	0	0	1	45
"InstructionMarkovVideoG"	18	1	-1	-1	0.57851	0.47491	2	4	1	1	1	45
"InstructionMarkovVideoG"	19	1	1	1	0.603705	0.543825	2	4	0	1	1	45
"InstructionMarkovVideoG"	20	1	-1	1	0.593915	0.39291	2	4	1	1	1	45
"InstructionMarkovVideoG"	21	1	1	1	0.5374	0.580265	2	4	0	1	1	45
"InstructionMarkovVideoG"	22	1	-1	1	0.471685	0.49184	2	3	0	1	1	45
"InstructionMarkovVideoG"	23	1	-1	1	0.59935	0.53917	2	3	1	1	1	45
"InstructionMarkovVideoG"	24	1	1	1	0.63344	0.52415	2	3	1	1	1	45
"InstructionMarkovVideoG"	25	1	1	1	0.595055	1.087345	2	1	0	0	1	45
"InstructionMarkovVideoG"	26	1	-1	-1	0.42502	0.50614	2	3	1	1	1	45
"InstructionMarkovVideoG"	27	1	1	1	0.506185	0.656105	2	3	1	1	1	45
"InstructionMarkovVideoG"	28	1	1	1	0.49494	0.634745	2	3	0	1	1	45
"InstructionMarkovVideoG"	29	1	-1	1	0.526295	0.412445	2	3	0	1	1	45
"InstructionMarkovVideoG"	30	0	-1	1	0.90583	0.375895	1	3	0	0	1	45
"InstructionMarkovVideoG"	31	1	-1	-1	0.71056	0.37019	1	1	0	1	1	45
"InstructionMarkovVideoG"	32	1	-1	1	0.833445	0.47709	1	2	1	1	1	45
"InstructionMarkovVideoG"	34	1	1	-1	0.533895	0.483805	1	2	0	1	1	45
"InstructionMarkovVideoG"	35	0	-1	1	0.536425	0.48513	2	3	1	1	1	45
"InstructionMarkovVideoG"	36	1	1	1	0.72222	0.469145	2	3	0	1	1	45
"InstructionMarkovVideoG"	37	1	-1	1	0.395555	0.401475	2	3	0	1	1	45
"InstructionMarkovVideoG"	38	1	-1	1	0.451075	0.368685	2	1	0	0	1	45
"InstructionMarkovVideoG"	39	1	-1	-1	0.40197	0.375285	2	3	1	1	1	45
"InstructionMarkovVideoG"	40	1	1	1	0.689075	0.53494	2	3	1	1	1	45
"InstructionMarkovVideoG"	41	1	1	1	0.650985	0.573085	2	3	0	1	1	45
"InstructionMarkovVideoG"	42	1	-1	1	0.419675	0.625215	2	3	1	1	1	45
"InstructionMarkovVideoG"	43	1	1	1	0.618195	0.770485	2	2	1	0	1	45
"InstructionMarkovVideoG"	44	1	1	-1	0.60258	0.90806	2	2	0	0	1	45
"InstructionMarkovVideoG"	45	1	-1	-1	0.625455	0.41209	2	3	0	1	1	45
"InstructionMarkovVideoG"	46	1	-1	1	0.50931	0.968955	2	2	1	0	1	45
"InstructionMarkovVideoG"	47	0	1	-1	0.669355	0.46117	1	2	0	1	1	45
"InstructionMarkovVideoG"	48	1	-1	1	0.43793	0.483215	1	2	1	1	1	45
"InstructionMarkovVideoG"	49	1	1	1	0.48458	1.144065	1	3	0	0	1	45
"InstructionMarkovVideoG"	50	1	-1	-1	0.572115	0.363515	1	2	1	1	1	45
"InstructionMarkovVideoG"	51	1	1	1	0.419585	0.56397	1	2	0	1	1	45
"InstructionMarkovVideoG"	52	1	-1	1	1.90878	0.349975	1	1	0	1	1	45
"InstructionMarkovVideoG"	53	1	-1	1	0.293375	0.426465	1	1	0	1	1	45
"InstructionMarkovVideoG"	54	0	-1	1	0.66852	0.42653	2	3	0	1	1	45
"InstructionMarkovVideoG"	55	1	-1	1	0.32182	0.470375	2	4	0	1	1	45
"InstructionMarkovVideoG"	56	1	-1	1	0.3889	0.58391	2	3	0	1	1	45
"InstructionMarkovVideoG"	57	1	-1	1	0.457745	0.36659	2	1	1	0	1	45
"InstructionMarkovVideoG"	58	0	1	-1	0.741395	0.48273	1	1	0	1	1	45
"InstructionMarkovVideoG"	59	1	-1	1	0.409325	0.393195	1	1	0	1	1	45
"InstructionMarkovVideoG"	60	1	-1	1	0.43396	0.36022	1	2	0	1	1	45
"InstructionMarkovVideoG"	61	1	-1	1	0.495365	0.77731	1	2	1	1	1	45
"InstructionMarkovVideoG"	62	1	1	1	0.40197	0.483925	1	2	0	1	1	45
"InstructionMarkovVideoG"	63	1	-1	1	1.333145	0.44674	1	1	1	1	1	45
"InstructionMarkovVideoG"	64	1	1	1	0.409115	0.43011	1	1	1	1	1	45
"InstructionMarkovVideoG"	65	1	1	1	0.33628	0.428115	1	1	1	1	1	45
"InstructionMarkovVideoG"	66	1	1	1	0.394075	1.60878	1	3	0	0	1	45
"InstructionMarkovVideoG"	67	1	-1	-1	0.34	0.524995	1	1	1	1	1	45
"InstructionMarkovVideoG"	68	1	1	1	0.373125	0.492745	1	1	1	1	1	45
"InstructionMarkovVideoG"	69	1	1	1	0.27693	0.63566	1	1	1	1	1	45
"InstructionMarkovVideoG"	70	1	1	1	0.48418	0.41054	1	1	1	1	1	45
"InstructionMarkovVideoG"	71	1	1	1	0.39452	0.982605	1	4	0	0	1	45
"InstructionMarkovVideoG"	72	1	-1	-1	0.38512	0.44033	1	1	0	1	1	45
"InstructionMarkovVideoG"	73	1	-1	1	0.38623	0.406845	1	1	1	1	1	45
"InstructionMarkovVideoG"	74	1	1	1	0.386595	1.39121	1	3	1	0	1	45
"InstructionMarkovVideoG"	75	1	1	-1	0.40643	0.49676	1	1	0	1	1	45
"InstructionMarkovVideoG"	76	1	-1	1	0.340315	0.46192	1	1	0	1	1	45
"InstructionMarkovVideoG"	77	1	-1	1	0.31999	1.207305	1	3	0	0	1	45
"InstructionMarkovVideoG"	78	1	-1	-1	0.35594	0.40249	1	1	1	1	1	45
"InstructionMarkovVideoG"	79	1	1	1	0.46704	0.47539	1	1	0	1	1	45
"InstructionMarkovVideoG"	80	1	-1	1	0.38464	0.3927	1	2	0	1	1	45
"InstructionMarkovVideoG"	81	1	-1	1	0.30278	0.482125	1	2	1	1	1	45
"InstructionMarkovVideoG"	82	1	1	1	0.48622	0.4208	1	2	1	1	1	45
"InstructionMarkovVideoG"	83	1	1	1	0.61003	0.48232	1	2	1	1	1	45
"InstructionMarkovVideoG"	84	1	1	1	0.358285	0.549765	1	2	1	1	1	45
"InstructionMarkovVideoG"	85	1	1	1	0.35092	0.427745	1	2	0	1	1	45
"InstructionMarkovVideoG"	86	1	-1	1	0.32607	0.350545	1	4	1	0	1	45
"InstructionMarkovVideoG"	87	0	1	-1	0.350655	0.448235	2	4	0	1	1	45
"InstructionMarkovVideoG"	88	1	-1	1	0.362435	0.45492	2	4	0	1	1	45
"InstructionMarkovVideoG"	89	1	-1	1	0.556465	0.38603	2	3	1	1	1	45
"InstructionMarkovVideoG"	90	1	1	1	0.47116	0.455095	2	3	1	1	1	45
"InstructionMarkovVideoG"	91	1	1	1	0.537725	0.38412	2	3	1	1	1	45
"InstructionMarkovVideoG"	92	1	1	1	0.408575	0.534135	2	3	1	1	1	45
"InstructionMarkovVideoG"	94	1	-1	-1	0.33691	0.49306	2	3	0	1	1	45
"InstructionMarkovVideoG"	95	1	-1	1	0.700995	0.344105	2	3	0	1	1	45
"InstructionMarkovVideoG"	96	1	-1	1	0.387	0.45083	2	4	0	1	1	45
"InstructionMarkovVideoG"	97	1	-1	1	0.3344	0.37736	2	4	0	1	1	45
"InstructionMarkovVideoG"	98	1	-1	1	0.30556	0.46812	2	4	0	1	1	45
"InstructionMarkovVideoG"	99	1	-1	1	0.47782	0.34906	2	3	0	1	1	45
"InstructionMarkovVideoG"	100	0	-1	1	0.76688	0.33992	1	1	1	1	1	45
"InstructionMarkovVideoG"	101	1	1	1	0.355755	0.40509	1	3	1	0	1	45
"InstructionMarkovVideoG"	102	1	1	-1	0.40187	0.50266	1	1	1	1	1	45
"InstructionMarkovVideoG"	103	1	1	1	0.69279	0.47427	1	3	0	0	1	45
"InstructionMarkovVideoG"	104	1	-1	-1	0.51132	0.44543	1	1	0	1	1	45
"InstructionMarkovVideoG"	105	1	-1	1	0.4259	0.69161	1	4	0	0	1	45
"InstructionMarkovVideoG"	106	1	-1	-1	0.372685	0.53513	1	1	0	1	1	45
"InstructionMarkovVideoG"	107	1	-1	1	0.41788	0.510745	1	2	0	1	1	45
"InstructionMarkovVideoG"	108	1	-1	1	0.411615	1.023145	1	3	0	0	1	45
"InstructionMarkovVideoG"	109	1	-1	-1	0.32541	0.396425	1	2	0	1	1	45
"InstructionMarkovVideoG"	110	1	-1	1	0.510255	0.4499	1	1	0	1	1	45
"InstructionMarkovVideoG"	111	0	-1	1	0.406955	0.30124	2	4	0	1	1	45
"InstructionMarkovVideoG"	112	1	-1	1	0.43542	0.585905	2	4	1	1	1	45
"InstructionMarkovVideoG"	113	1	1	1	0.318815	0.80696	2	1	0	0	1	45
"InstructionMarkovVideoG"	114	1	-1	-1	0.59471	0.3783	2	4	0	1	1	45
"InstructionMarkovVideoG"	115	1	-1	1	0.45909	1.037715	2	2	1	0	1	45
"InstructionMarkovVideoG"	116	0	1	-1	0.502585	0.435145	1	2	1	1	1	45
"InstructionMarkovVideoG"	117	1	1	1	0.343015	0.53898	1	2	0	1	1	45
"InstructionMarkovVideoG"	118	1	-1	1	0.366455	0.35399	1	4	1	0	1	45
"InstructionMarkovVideoG"	119	0	1	-1	0.90123	0.40243	2	4	0	1	1	45
"InstructionMarkovVideoG"	120	1	-1	1	0.8437	0.469235	2	4	1	1	1	45
"InstructionMarkovVideoG"	121	1	1	1	0.353925	0.42343	2	4	1	1	1	45
"InstructionMarkovVideoG"	122	1	1	1	0.318065	1.063125	2	1	1	0	1	45
"InstructionMarkovVideoG"	123	1	1	-1	0.967745	1.86921	2	4	1	1	1	45
"InstructionMarkovVideoG"	124	1	1	1	0.85584	0.48768	2	4	0	1	1	45
"InstructionMarkovVideoG"	125	1	-1	1	0.387295	0.495745	2	4	0	1	1	45
"InstructionMarkovVideoG"	126	1	-1	1	0.35079	0.903265	2	1	1	0	1	45
"InstructionMarkovVideoG"	127	0	1	-1	0.56808	0.43432	1	1	1	1	1	45
"InstructionMarkovVideoG"	128	1	1	1	0.457	0.389565	1	1	1	1	1	45
"InstructionMarkovVideoG"	129	1	1	1	0.45338	1.21827	1	3	1	0	1	45
"InstructionMarkovVideoG"	130	1	1	-1	0.45744	0.417755	1	1	1	1	1	45
"InstructionMarkovVideoG"	131	1	1	1	0.373335	0.785875	1	3	0	0	1	45
"InstructionMarkovVideoG"	132	1	-1	-1	0.418575	0.519545	1	3	0	0	1	45
"InstructionMarkovVideoG"	134	1	-1	-1	0.65662	0.80153	1	3	0	0	1	45
"InstructionMarkovVideoG"	135	0	-1	-1	0.63481	0.902305	2	3	1	1	1	45
"InstructionMarkovVideoG"	136	1	1	1	0.68434	0.506015	2	3	0	1	1	45
"InstructionMarkovVideoG"	137	1	-1	1	0.7018	1.135625	2	1	1	0	1	45
"InstructionMarkovVideoG"	138	0	1	-1	0.71597	1.056585	1	4	0	0	1	45
"InstructionMarkovVideoG"	139	1	-1	-1	0.40785	0.634925	1	3	0	0	1	45
"InstructionMarkovVideoG"	140	0	-1	-1	0.483895	0.685285	2	3	0	1	1	45
"InstructionMarkovVideoG"	141	0	-1	1	0.668455	0.52659	1	1	0	1	1	45
"InstructionMarkovVideoG"	142	1	-1	1	0.391695	0.802725	1	1	1	1	1	45
"InstructionMarkovVideoG"	143	1	1	1	0.51976	0.6394	1	1	1	1	1	45
"InstructionMarkovVideoG"	144	1	1	1	0.45182	1.004325	1	4	1	0	1	45
"InstructionMarkovVideoG"	145	1	1	-1	0.54979	0.5692	1	1	1	1	1	45
"InstructionMarkovVideoG"	146	1	1	1	0.711565	0.684985	1	1	0	1	1	45
"InstructionMarkovVideoG"	147	1	-1	1	0.55271	0.586385	1	4	0	0	1	45
"InstructionMarkovVideoG"	148	1	-1	-1	0.65739	0.605815	1	2	1	1	1	45
"InstructionMarkovVideoG"	149	1	1	1	0.45763	0.435945	1	2	0	1	1	45
"InstructionMarkovVideoG"	150	1	-1	1	0.364855	1.039695	1	3	1	0	1	45
"InstructionMarkovVideoG"	151	0	1	-1	0.647255	0.460645	2	3	0	1	1	45
"InstructionMarkovVideoG"	152	1	-1	1	0.37548	0.35337	2	1	1	0	1	45
"InstructionMarkovVideoG"	153	0	1	-1	0.58204	0.40362	1	1	1	1	1	45
"InstructionMarkovVideoG"	154	1	1	1	0.468035	0.44103	1	1	1	1	1	45
"InstructionMarkovVideoG"	155	1	1	1	0.37773	0.58046	1	1	0	1	1	45
"InstructionMarkovVideoG"	156	1	-1	1	0.421205	0.40208	1	1	1	1	1	45
"InstructionMarkovVideoG"	157	1	1	1	0.35111	0.469185	1	1	0	1	1	45
"InstructionMarkovVideoG"	158	1	-1	1	0.301915	0.40274	1	1	1	1	1	45
"InstructionMarkovVideoG"	159	1	1	1	0.3584	0.987695	1	4	0	0	1	45
"InstructionMarkovVideoG"	160	1	-1	-1	0.56805	0.40188	1	3	1	0	1	45
"InstructionMarkovVideoG"	161	1	1	-1	0.63328	0.568885	1	1	0	1	1	45
"InstructionMarkovVideoG"	162	0	-1	1	0.38428	0.374645	2	3	0	1	1	45
"InstructionMarkovVideoG"	163	1	-1	1	0.48815	0.39483	2	3	0	1	1	45
"InstructionMarkovVideoG"	164	0	-1	1	0.47036	0.30958	1	2	0	1	1	45
"InstructionMarkovVideoG"	165	1	-1	1	0.33859	0.568195	1	2	1	1	1	45
"InstructionMarkovVideoG"	166	1	1	1	0.341705	0.479295	1	2	0	1	1	45
"InstructionMarkovVideoG"	167	1	-1	1	0.285165	0.412345	1	2	0	1	1	45
"InstructionMarkovVideoG"	168	0	-1	1	0.317435	0.488315	2	3	1	1	1	45
"InstructionMarkovVideoG"	169	1	1	1	0.351795	0.598195	2	3	1	1	1	45
"InstructionMarkovVideoG"	170	1	1	1	0.30144	0.472535	2	3	1	1	1	45
"InstructionMarkovVideoG"	171	1	1	1	0.36805	0.52514	2	3	1	1	1	45
"InstructionMarkovVideoG"	172	1	1	1	0.34236	0.43542	2	3	1	1	1	45
"InstructionMarkovVideoG"	173	1	1	1	0.319045	0.419595	2	3	0	1	1	45
"InstructionMarkovVideoG"	174	1	-1	1	0.268935	0.35849	2	3	0	1	1	45
"InstructionMarkovVideoG"	175	1	-1	1	0.301115	0.38723	2	4	1	1	1	45
"InstructionMarkovVideoG"	176	1	1	1	0.42899	0.3765	2	4	1	1	1	45
"InstructionMarkovVideoG"	177	1	1	1	0.394855	0.402605	2	4	1	1	1	45
"InstructionMarkovVideoG"	178	1	1	1	0.350315	0.407075	2	4	1	1	1	45
"InstructionMarkovVideoG"	179	1	1	1	0.300325	0.395955	2	4	1	1	1	45
"InstructionMarkovVideoG"	180	1	1	1	0.370605	0.40553	2	4	0	1	1	45
"InstructionMarkovVideoG"	181	1	-1	1	0.292845	0.49199	2	4	0	1	1	45
"InstructionMarkovVideoG"	182	1	-1	1	0.40415	0.325575	2	3	1	1	1	45
"InstructionMarkovVideoG"	183	1	1	1	0.495605	0.42382	2	3	0	1	1	45
"InstructionMarkovVideoG"	184	1	-1	1	0.3185	0.42696	2	3	1	1	1	45
"InstructionMarkovVideoG"	185	1	1	1	0.368395	0.425335	2	3	1	1	1	45
"InstructionMarkovVideoG"	186	1	1	1	0.3236	0.638065	2	3	1	1	1	45
"InstructionMarkovVideoG"	187	1	1	1	0.336295	0.51872	2	3	0	1	1	45
"InstructionMarkovVideoG"	188	1	-1	1	0.28888	0.34649	2	3	1	1	1	45
"InstructionMarkovVideoG"	189	1	1	1	0.34299	0.429035	2	3	0	1	1	45
"InstructionMarkovVideoG"	190	1	-1	1	0.315845	0.366155	2	3	1	1	1	45
"InstructionMarkovVideoG"	191	1	1	1	0.443275	0.475245	2	3	1	1	1	45
"InstructionMarkovVideoG"	192	1	1	1	0.328665	0.362985	2	3	0	1	1	45
"InstructionMarkovVideoG"	193	0	-1	1	0.40332	0.368885	1	1	1	1	1	45
"InstructionMarkovVideoG"	194	1	1	1	0.305765	0.41855	1	1	0	1	1	45
"InstructionMarkovVideoG"	195	1	-1	1	0.30113	0.349595	1	3	1	0	1	45
"InstructionMarkovVideoG"	196	1	1	-1	0.3066	0.408325	1	1	0	1	1	45
"InstructionMarkovVideoG"	197	1	-1	1	0.326275	0.29219	1	2	0	1	1	45
"InstructionMarkovVideoG"	198	1	-1	1	0.340075	0.35238	1	2	1	1	1	45
"InstructionMarkovVideoG"	199	1	1	1	0.321225	0.47913	1	2	1	1	1	45
"InstructionMarkovVideoG"	200	1	1	1	0.30986	0.437055	1	4	0	0	1	45
"InstructionMarkovVideoG"	11	1	-1	1	0.4886	0.364035	2	4	1	1	1	57
"InstructionMarkovVideoG"	12	0	1	1	0.37153	0.35866	1	3	0	0	1	57
"InstructionMarkovVideoG"	13	0	-1	-1	1.03499	0.23286	2	3	1	1	1	57
"InstructionMarkovVideoG"	14	0	1	1	0.34047	0.330655	1	1	1	1	1	57
"InstructionMarkovVideoG"	15	1	1	1	0.319365	0.37268	1	3	1	0	1	57
"InstructionMarkovVideoG"	16	0	1	-1	0.53474	0.40198	2	4	0	1	1	57
"InstructionMarkovVideoG"	17	1	-1	1	0.6187	0.38147	2	3	1	1	1	57
"InstructionMarkovVideoG"	18	0	1	1	0.36109	0.45217	1	3	1	0	1	57
"InstructionMarkovVideoG"	19	1	1	-1	0.300865	0.45241	1	3	1	0	1	57
"InstructionMarkovVideoG"	20	1	1	-1	0.551075	0.40408	1	2	1	1	1	57
"InstructionMarkovVideoG"	21	0	1	1	1.169985	0.26429	2	3	1	1	1	57
"InstructionMarkovVideoG"	22	1	1	1	0.35131	1.13183	2	2	0	0	1	57
"InstructionMarkovVideoG"	23	0	-1	-1	0.217705	0.40001	1	2	0	1	1	57
"InstructionMarkovVideoG"	24	1	-1	1	0.434565	0.34821	1	1	1	1	1	57
"InstructionMarkovVideoG"	25	1	1	1	0.51575	0.265155	1	2	1	1	1	57
"InstructionMarkovVideoG"	27	1	-1	1	0.667675	0.79714	1	2	1	1	1	57
"InstructionMarkovVideoG"	28	0	1	1	0.634175	0.513995	2	3	0	1	1	57
"InstructionMarkovVideoG"	29	1	-1	1	0.526325	0.700525	2	3	1	1	1	57
"InstructionMarkovVideoG"	30	0	1	1	0.334785	0.48087	1	1	1	1	1	57
"InstructionMarkovVideoG"	31	1	1	1	0.42437	0.64715	1	1	1	1	1	57
"InstructionMarkovVideoG"	32	0	1	1	1.00104	0.77328	2	3	1	1	1	57
"InstructionMarkovVideoG"	33	1	1	1	0.4402	0.446635	2	4	0	1	1	57
"InstructionMarkovVideoG"	34	1	-1	1	0.37055	0.97006	2	2	1	0	1	57
"InstructionMarkovVideoG"	36	1	-1	-1	0.40154	0.75385	1	1	1	1	1	57
"InstructionMarkovVideoG"	37	1	1	1	1.568425	0.77206	1	1	1	1	1	57
"InstructionMarkovVideoG"	38	1	1	1	0.50838	0.75496	1	1	1	1	1	57
"InstructionMarkovVideoG"	39	1	1	1	0.717715	0.73031	1	1	1	1	1	57
"InstructionMarkovVideoG"	40	1	1	1	0.475555	0.650915	1	1	1	1	1	57
"InstructionMarkovVideoG"	41	1	1	1	0.441915	0.63455	1	1	1	1	1	57
"InstructionMarkovVideoG"	42	1	1	1	0.473795	0.763915	1	1	0	1	1	57
"InstructionMarkovVideoG"	43	1	-1	1	0.35121	0.896795	1	1	1	1	1	57
"InstructionMarkovVideoG"	44	1	1	1	0.98798	0.73181	1	1	1	1	1	57
"InstructionMarkovVideoG"	45	1	1	1	0.537315	1.064035	1	1	1	1	1	57
"InstructionMarkovVideoG"	46	1	1	1	0.334275	0.666135	1	1	0	1	1	57
"InstructionMarkovVideoG"	47	0	-1	1	1.068355	1.547585	2	4	1	1	1	57
"InstructionMarkovVideoG"	48	0	1	1	0.45172	0.6827	1	1	1	1	1	57
"InstructionMarkovVideoG"	49	1	1	1	0.38913	0.580665	1	1	1	1	1	57
"InstructionMarkovVideoG"	50	0	1	1	0.399815	1.73199	2	3	1	1	1	57
"InstructionMarkovVideoG"	51	0	1	1	0.350875	0.69728	1	3	0	0	1	57
"InstructionMarkovVideoG"	52	1	-1	-1	0.48664	0.65323	1	4	0	0	1	57
"InstructionMarkovVideoG"	53	1	-1	-1	0.483235	0.463775	1	1	0	1	1	57
"InstructionMarkovVideoG"	54	1	-1	1	0.28479	1.563355	1	4	0	0	1	57
"InstructionMarkovVideoG"	55	1	-1	-1	0.40126	0.713755	1	1	1	1	1	57
"InstructionMarkovVideoG"	56	1	1	1	0.36626	0.42081	1	1	1	1	1	57
"InstructionMarkovVideoG"	57	0	1	1	1.184545	1.352725	2	4	0	1	1	57
"InstructionMarkovVideoG"	58	0	-1	1	0.500925	0.38166	1	1	1	1	1	57
"InstructionMarkovVideoG"	59	1	1	1	0.305625	0.63262	1	1	1	1	1	57
"InstructionMarkovVideoG"	60	1	1	1	0.44212	1.384705	1	3	0	0	1	57
"InstructionMarkovVideoG"	61	1	-1	-1	0.41738	0.79731	1	1	0	1	1	57
"InstructionMarkovVideoG"	62	1	-1	1	0.719075	0.648625	1	1	0	1	1	57
"InstructionMarkovVideoG"	63	1	-1	1	0.36077	0.64864	1	1	0	1	1	57
"InstructionMarkovVideoG"	64	1	-1	1	0.34037	1.347655	1	3	1	0	1	57
"InstructionMarkovVideoG"	65	1	1	-1	0.94123	0.730905	1	4	0	0	1	57
"InstructionMarkovVideoG"	66	1	-1	-1	0.569445	0.42146	1	1	1	1	1	57
"InstructionMarkovVideoG"	67	1	1	1	0.623105	0.41359	1	1	0	1	1	57
"InstructionMarkovVideoG"	68	0	-1	1	0.66958	0.615635	2	3	0	1	1	57
"InstructionMarkovVideoG"	69	0	-1	1	0.33498	0.696755	1	1	1	1	1	57
"InstructionMarkovVideoG"	70	1	1	1	0.55497	0.889115	1	3	0	0	1	57
"InstructionMarkovVideoG"	71	1	-1	-1	0.366745	1.130545	1	3	0	0	1	57
"InstructionMarkovVideoG"	72	1	-1	-1	0.28655	0.70568	1	3	0	0	1	57
"InstructionMarkovVideoG"	73	1	-1	-1	0.30782	0.86261	1	1	1	1	1	57
"InstructionMarkovVideoG"	74	1	1	1	0.43619	0.68708	1	1	1	1	1	57
"InstructionMarkovVideoG"	75	1	1	1	0.429395	1.10341	1	4	0	0	1	57
"InstructionMarkovVideoG"	77	1	-1	-1	0.46843	1.098125	1	3	0	0	1	57
"InstructionMarkovVideoG"	78	1	-1	-1	0.674265	0.837565	1	4	0	0	1	57
"InstructionMarkovVideoG"	79	1	-1	-1	0.53463	1.133825	1	3	1	0	1	57
"InstructionMarkovVideoG"	80	0	1	-1	0.422435	0.736275	2	3	0	1	1	57
"InstructionMarkovVideoG"	81	0	-1	1	0.48907	0.35197	1	1	0	1	1	57
"InstructionMarkovVideoG"	82	1	-1	1	0.51977	0.847905	1	1	1	1	1	57
"InstructionMarkovVideoG"	83	1	1	1	1.976625	0.584765	1	1	0	1	1	57
"InstructionMarkovVideoG"	84	1	-1	1	0.458175	0.92259	1	1	0	1	1	57
"InstructionMarkovVideoG"	85	1	-1	1	0.41764	0.56542	1	1	1	1	1	57
"InstructionMarkovVideoG"	86	1	1	1	0.42149	0.58115	1	1	1	1	1	57
"InstructionMarkovVideoG"	87	0	1	1	0.71808	0.46621	2	3	0	1	1	57
"InstructionMarkovVideoG"	88	0	-1	1	0.501425	0.87293	1	1	0	1	1	57
"InstructionMarkovVideoG"	89	1	-1	1	0.505345	1.08672	1	1	0	1	1	57
"InstructionMarkovVideoG"	90	1	-1	1	0.42025	0.798625	1	1	1	1	1	57
"InstructionMarkovVideoG"	91	1	1	1	0.485015	0.414485	1	1	1	1	1	57
"InstructionMarkovVideoG"	92	0	1	1	0.585975	0.57052	2	4	1	1	1	57
"InstructionMarkovVideoG"	93	0	1	1	0.485595	0.630365	1	2	1	1	1	57
"InstructionMarkovVideoG"	94	1	1	1	0.367565	0.431705	1	1	1	1	1	57
"InstructionMarkovVideoG"	95	1	1	1	0.39115	1.332785	1	4	0	0	1	57
"InstructionMarkovVideoG"	96	0	-1	-1	0.50219	0.53036	2	1	1	0	1	57
"InstructionMarkovVideoG"	97	0	1	-1	0.451365	1.804155	1	1	0	1	1	57
"InstructionMarkovVideoG"	98	0	-1	1	0.491475	0.63139	2	4	0	1	1	57
"InstructionMarkovVideoG"	99	0	-1	1	0.33532	1.414485	1	2	0	1	1	57
"InstructionMarkovVideoG"	100	1	-1	1	0.30054	0.38205	1	1	0	1	1	57
"InstructionMarkovVideoG"	101	0	-1	1	0.59065	0.497345	2	3	0	1	1	57
"InstructionMarkovVideoG"	102	0	-1	1	0.28563	0.72062	1	3	1	0	1	57
"InstructionMarkovVideoG"	103	1	1	-1	0.50325	0.781215	1	1	1	1	1	57
"InstructionMarkovVideoG"	104	1	1	1	0.633845	0.31633	1	1	1	1	1	57
"InstructionMarkovVideoG"	105	1	1	1	0.76855	0.28444	1	2	1	1	1	57
"InstructionMarkovVideoG"	106	1	1	1	0.341535	0.548075	1	2	1	1	1	57
"InstructionMarkovVideoG"	107	1	1	1	0.259135	0.555995	1	1	0	1	1	57
"InstructionMarkovVideoG"	108	0	-1	1	0.358815	0.63084	2	4	1	1	1	57
"InstructionMarkovVideoG"	109	0	1	1	0.27738	0.6705	1	1	1	1	1	57
"InstructionMarkovVideoG"	110	1	1	1	0.468315	1.11387	1	3	0	0	1	57
"InstructionMarkovVideoG"	111	0	-1	-1	0.468315	0.517895	2	1	0	0	1	57
"InstructionMarkovVideoG"	112	0	-1	-1	0.504095	0.423555	1	1	0	1	1	57
"InstructionMarkovVideoG"	113	1	-1	1	0.32544	0.553905	1	1	1	1	1	57
"InstructionMarkovVideoG"	114	1	1	1	0.501695	0.865535	1	4	0	0	1	57
"InstructionMarkovVideoG"	115	1	-1	-1	0.385015	0.61693	1	1	1	1	1	57
"InstructionMarkovVideoG"	116	1	1	1	0.59076	0.29885	1	1	0	1	1	57
"InstructionMarkovVideoG"	117	1	-1	1	0.31857	0.66714	1	2	0	1	1	57
"InstructionMarkovVideoG"	118	1	-1	1	0.38453	0.431795	1	2	1	1	1	57
"InstructionMarkovVideoG"	120	1	-1	1	1.05872	1.59646	2	1	1	0	1	57
"InstructionMarkovVideoG"	121	0	1	-1	0.351195	0.367685	1	1	0	1	1	57
"InstructionMarkovVideoG"	122	1	-1	1	0.29032	1.06371	1	4	0	0	1	57
"InstructionMarkovVideoG"	123	1	-1	-1	0.25096	0.49727	1	3	0	0	1	57
"InstructionMarkovVideoG"	124	1	-1	-1	0.30298	0.63099	1	1	0	1	1	57
"InstructionMarkovVideoG"	125	1	-1	1	0.32046	1.231575	1	1	0	1	1	57
"InstructionMarkovVideoG"	126	1	-1	1	0.269935	0.3807	1	1	1	1	1	57
"InstructionMarkovVideoG"	127	1	1	1	0.284245	0.299745	1	1	1	1	1	57
"InstructionMarkovVideoG"	128	1	1	1	0.60205	0.388785	1	2	1	1	1	57
"InstructionMarkovVideoG"	129	1	1	1	0.51853	0.756555	1	1	0	1	1	57
"InstructionMarkovVideoG"	130	1	-1	1	0.284345	0.914365	1	3	0	0	1	57
"InstructionMarkovVideoG"	131	1	-1	-1	0.31647	1.71425	1	4	0	0	1	57
"InstructionMarkovVideoG"	132	1	-1	-1	0.28918	0.563345	1	1	0	1	1	57
"InstructionMarkovVideoG"	133	1	-1	1	0.30096	0.832245	1	1	1	1	1	57
"InstructionMarkovVideoG"	134	1	1	1	0.23544	0.397425	1	3	1	0	1	57
"InstructionMarkovVideoG"	135	1	1	-1	0.558725	1.01475	1	3	0	0	1	57
"InstructionMarkovVideoG"	136	0	-1	-1	0.4674	0.418255	2	1	1	0	1	57
"InstructionMarkovVideoG"	137	0	1	-1	0.435255	1.647765	1	1	1	1	1	57
"InstructionMarkovVideoG"	139	1	1	1	0.834755	0.7577	1	4	1	0	1	57
"InstructionMarkovVideoG"	140	1	1	-1	0.45188	0.597045	1	4	1	0	1	57
"InstructionMarkovVideoG"	141	1	1	-1	0.29474	0.397335	1	1	1	1	1	57
"InstructionMarkovVideoG"	142	1	1	1	0.601505	0.41985	1	4	1	0	1	57
"InstructionMarkovVideoG"	143	1	1	-1	0.31907	0.61469	1	1	0	1	1	57
"InstructionMarkovVideoG"	144	1	-1	1	0.36163	0.497575	1	2	0	1	1	57
"InstructionMarkovVideoG"	145	1	-1	1	0.272095	0.282155	1	1	1	1	1	57
"InstructionMarkovVideoG"	146	1	1	1	0.23461	0.25253	1	1	1	1	1	57
"InstructionMarkovVideoG"	147	1	1	1	0.4192	0.53199	1	1	0	1	1	57
"InstructionMarkovVideoG"	148	1	-1	1	0.33551	0.280245	1	1	0	1	1	57
"InstructionMarkovVideoG"	149	1	-1	1	0.27362	0.6967	1	1	0	1	1	57
"InstructionMarkovVideoG"	150	1	-1	1	0.06959	0.38444	1	2	1	1	1	57
"InstructionMarkovVideoG"	151	1	1	1	0.300785	0.247785	1	3	1	0	1	57
"InstructionMarkovVideoG"	152	1	1	-1	0.352425	0.55047	1	4	0	0	1	57
"InstructionMarkovVideoG"	153	1	-1	-1	0.277925	0.48089	1	3	1	0	1	57
"InstructionMarkovVideoG"	154	0	1	-1	0.484605	0.498705	2	3	0	1	1	57
"InstructionMarkovVideoG"	155	1	-1	1	0.284545	0.40624	2	4	1	1	1	57
"InstructionMarkovVideoG"	156	1	1	1	0.31798	0.362805	2	1	1	0	1	57
"InstructionMarkovVideoG"	157	1	1	-1	0.389315	0.63733	2	3	0	1	1	57
"InstructionMarkovVideoG"	158	0	-1	1	0.102735	0.422625	1	3	0	0	1	57
"InstructionMarkovVideoG"	159	1	-1	-1	0.24914	0.41441	1	1	0	1	1	57
"InstructionMarkovVideoG"	160	0	-1	1	0.535255	0.320485	2	1	1	0	1	57
"InstructionMarkovVideoG"	161	0	1	-1	0.25084	0.563475	1	4	0	0	1	57
"InstructionMarkovVideoG"	162	0	-1	-1	0.46909	0.589765	2	4	0	1	1	57
"InstructionMarkovVideoG"	163	1	-1	1	0.268115	0.466295	2	3	1	1	1	57
"InstructionMarkovVideoG"	164	0	1	1	0.235535	0.413785	1	1	1	1	1	57
"InstructionMarkovVideoG"	165	1	1	1	0.250855	0.34744	1	1	0	1	1	57
"InstructionMarkovVideoG"	166	1	-1	1	0.24906	0.714225	1	1	0	1	1	57
"InstructionMarkovVideoG"	167	1	-1	1	0.241265	0.480305	1	2	1	1	1	57
"InstructionMarkovVideoG"	168	0	1	1	0.435045	0.937635	2	4	1	1	1	57
"InstructionMarkovVideoG"	169	0	1	1	0.47027	0.799895	1	1	1	1	1	57
"InstructionMarkovVideoG"	170	1	1	1	0.333975	0.67335	1	3	1	0	1	57
"InstructionMarkovVideoG"	171	0	1	-1	0.30296	0.67058	2	4	0	1	1	57
"InstructionMarkovVideoG"	172	1	-1	1	0.3254	0.485805	2	3	1	1	1	57
"InstructionMarkovVideoG"	173	1	1	1	0.27082	0.36576	2	3	0	1	1	57
"InstructionMarkovVideoG"	174	0	-1	1	0.30561	0.36611	1	1	1	1	1	57
"InstructionMarkovVideoG"	175	1	1	1	0.334475	1.81968	1	3	1	0	1	57
"InstructionMarkovVideoG"	176	1	1	-1	0.47082	1.264055	1	2	1	1	1	57
"InstructionMarkovVideoG"	177	1	1	1	0.302785	0.77152	1	2	0	1	1	57
"InstructionMarkovVideoG"	178	0	-1	1	0.350085	0.75118	2	4	1	1	1	57
"InstructionMarkovVideoG"	179	0	1	1	0.30278	0.283565	1	3	0	0	1	57
"InstructionMarkovVideoG"	180	1	-1	-1	0.37153	0.452325	1	3	0	0	1	57
"InstructionMarkovVideoG"	181	1	-1	-1	0.308975	0.847225	1	1	0	1	1	57
"InstructionMarkovVideoG"	182	1	-1	1	1.206705	0.596955	1	1	0	1	1	57
"InstructionMarkovVideoG"	183	1	-1	1	0.368935	0.367	1	3	1	0	1	57
"InstructionMarkovVideoG"	184	1	1	-1	1.167715	0.86369	1	1	1	1	1	57
"InstructionMarkovVideoG"	185	1	1	1	0.25425	0.78047	1	4	1	0	1	57
"InstructionMarkovVideoG"	186	0	1	-1	0.490575	0.686125	2	3	1	1	1	57
"InstructionMarkovVideoG"	187	1	1	1	0.661425	0.50294	2	3	0	1	1	57
"InstructionMarkovVideoG"	188	0	-1	1	0.257875	0.36405	1	3	1	0	1	57
"InstructionMarkovVideoG"	189	1	1	-1	0.32102	0.884965	1	1	1	1	1	57
"InstructionMarkovVideoG"	190	1	1	1	0.27348	0.71681	1	1	0	1	1	57
"InstructionMarkovVideoG"	191	0	-1	1	0.28807	0.27983	2	3	0	1	1	57
"InstructionMarkovVideoG"	192	0	-1	1	0.273855	0.467935	1	1	1	1	1	57
"InstructionMarkovVideoG"	193	1	1	1	0.252975	0.333285	1	1	0	1	1	57
"InstructionMarkovVideoG"	194	0	-1	1	0.134295	0.21934	2	3	0	1	1	57
"InstructionMarkovVideoG"	195	0	-1	1	0.334475	0.372415	1	3	1	0	1	57
"InstructionMarkovVideoG"	197	1	-1	-1	0.400975	0.647305	1	1	1	1	1	57
"InstructionMarkovVideoG"	198	1	1	1	0.30176	0.396445	1	1	0	1	1	57
"InstructionMarkovVideoG"	199	1	-1	1	0.268045	0.248885	1	2	0	1	1	57
"InstructionMarkovVideoG"	200	1	-1	1	0.25144	0.181685	1	1	1	1	1	57
"InstructionMarkovVideoG"	11	1	1	1	0.703385	0.60949	2	4	0	1	1	59
"InstructionMarkovVideoG"	12	1	-1	1	1.230745	0.61646	2	4	1	1	1	59
"InstructionMarkovVideoG"	13	0	1	1	1.020355	1.0452	1	1	1	1	1	59
"InstructionMarkovVideoG"	14	0	1	1	1.02643	1.221965	2	4	0	1	1	59
"InstructionMarkovVideoG"	15	0	-1	1	0.575565	1.172165	1	4	1	0	1	59
"InstructionMarkovVideoG"	16	0	1	-1	0.33947	0.67822	2	1	1	0	1	59
"InstructionMarkovVideoG"	18	1	1	1	0.38934	0.91768	2	3	0	1	1	59
"InstructionMarkovVideoG"	19	1	-1	1	0.30177	0.962365	2	4	1	1	1	59
"InstructionMarkovVideoG"	20	1	1	1	0.373945	0.695245	2	4	0	1	1	59
"InstructionMarkovVideoG"	21	0	-1	1	0.85245	0.454965	1	1	1	1	1	59
"InstructionMarkovVideoG"	22	1	1	1	0.401655	0.7715	1	1	0	1	1	59
"InstructionMarkovVideoG"	23	0	-1	1	0.72533	1.505565	2	3	1	1	1	59
"InstructionMarkovVideoG"	24	0	1	1	0.38622	0.734325	1	2	1	1	1	59
"InstructionMarkovVideoG"	25	1	1	1	0.77527	0.58511	1	1	1	1	1	59
"InstructionMarkovVideoG"	26	1	1	1	0.33951	0.98584	1	1	0	1	1	59
"InstructionMarkovVideoG"	27	0	-1	1	0.27067	0.54499	2	3	0	1	1	59
"InstructionMarkovVideoG"	28	1	-1	1	0.508415	0.49938	2	2	0	0	1	59
"InstructionMarkovVideoG"	29	1	-1	-1	0.93026	1.360165	2	4	1	1	1	59
"InstructionMarkovVideoG"	30	1	1	1	1.30268	0.729235	2	4	0	1	1	59
"InstructionMarkovVideoG"	31	0	-1	1	0.37489	0.915645	1	4	0	0	1	59
"InstructionMarkovVideoG"	32	1	-1	-1	0.35793	1.37915	1	2	1	1	1	59
"InstructionMarkovVideoG"	33	0	1	1	0.673715	0.94888	2	3	1	1	1	59
"InstructionMarkovVideoG"	34	1	1	1	0.4586	0.949765	2	3	1	1	1	59
"InstructionMarkovVideoG"	35	1	1	1	1.224285	1.67957	2	2	1	0	1	59
"InstructionMarkovVideoG"	36	0	1	-1	0.8619	0.838085	1	2	1	1	1	59
"InstructionMarkovVideoG"	37	1	1	1	0.4114	0.79973	1	2	1	1	1	59
"InstructionMarkovVideoG"	38	0	1	1	0.279305	0.901215	2	3	1	1	1	59
"InstructionMarkovVideoG"	39	1	1	1	0.51952	0.494985	2	3	1	1	1	59
"InstructionMarkovVideoG"	40	1	1	1	0.32814	0.95019	2	2	1	0	1	59
"InstructionMarkovVideoG"	42	0	1	1	0.304925	0.64271	2	3	1	1	1	59
"InstructionMarkovVideoG"	43	1	1	1	0.484835	0.61275	2	3	1	1	1	59
"InstructionMarkovVideoG"	44	1	1	1	0.30888	0.545015	2	3	1	1	1	59
"InstructionMarkovVideoG"	45	0	1	1	0.336085	0.795315	1	2	0	1	1	59
"InstructionMarkovVideoG"	46	0	-1	1	0.61652	1.19597	2	3	0	1	1	59
"InstructionMarkovVideoG"	48	1	-1	1	0.33497	0.721515	1	2	1	1	1	59
"InstructionMarkovVideoG"	49	1	1	1	1.318385	0.537385	1	2	0	1	1	59
"InstructionMarkovVideoG"	50	0	-1	1	0.328145	0.98694	2	1	1	0	1	59
"InstructionMarkovVideoG"	51	1	1	-1	0.76017	0.643385	2	1	1	0	1	59
"InstructionMarkovVideoG"	52	1	1	-1	0.770485	0.632415	2	1	0	0	1	59
"InstructionMarkovVideoG"	53	0	-1	-1	0.42852	1.705675	1	1	1	1	1	59
"InstructionMarkovVideoG"	54	1	1	1	0.53922	1.218	1	4	1	0	1	59
"InstructionMarkovVideoG"	55	1	1	-1	0.38921	1.34743	1	1	1	1	1	59
"InstructionMarkovVideoG"	56	0	1	1	0.53865	0.71212	2	1	0	0	1	59
"InstructionMarkovVideoG"	57	0	-1	-1	0.59664	1.07984	1	2	1	1	1	59
"InstructionMarkovVideoG"	58	0	1	1	0.32263	1.518745	2	3	0	1	1	59
"InstructionMarkovVideoG"	59	0	-1	1	0.554005	0.67788	1	2	1	1	1	59
"InstructionMarkovVideoG"	60	0	1	1	0.44081	0.57866	2	2	0	0	1	59
"InstructionMarkovVideoG"	61	0	-1	-1	0.35212	1.1295	1	1	1	1	1	59
"InstructionMarkovVideoG"	62	0	1	1	0.39691	1.070655	2	4	1	1	1	59
"InstructionMarkovVideoG"	63	1	1	1	0.456135	0.902065	2	1	1	0	1	59
"InstructionMarkovVideoG"	64	0	1	-1	0.39139	0.950135	1	2	1	1	1	59
"InstructionMarkovVideoG"	65	0	1	1	0.40996	1.429705	2	2	1	0	1	59
"InstructionMarkovVideoG"	66	1	1	-1	0.31186	0.778415	2	4	0	1	1	59
"InstructionMarkovVideoG"	67	0	-1	1	0.38571	0.533955	1	2	1	1	1	59
"InstructionMarkovVideoG"	68	0	1	1	0.33526	0.9632	2	3	1	1	1	59
"InstructionMarkovVideoG"	69	1	1	1	0.50442	0.42879	2	3	0	1	1	59
"InstructionMarkovVideoG"	70	0	-1	1	0.380355	0.82648	1	2	1	1	1	59
"InstructionMarkovVideoG"	71	1	1	1	0.65329	0.493375	1	2	1	1	1	59
"InstructionMarkovVideoG"	72	0	1	1	0.27816	1.44826	2	2	1	0	1	59
"InstructionMarkovVideoG"	73	0	1	-1	0.86907	0.745325	1	2	0	1	1	59
"InstructionMarkovVideoG"	74	0	-1	1	0.2888	0.856425	2	4	1	1	1	59
"InstructionMarkovVideoG"	75	1	1	1	0.358235	0.53092	2	4	1	1	1	59
"InstructionMarkovVideoG"	76	1	1	1	0.30739	0.703525	2	1	0	0	1	59
"InstructionMarkovVideoG"	77	0	-1	-1	0.320095	0.564075	1	2	1	1	1	59
"InstructionMarkovVideoG"	78	1	1	1	0.50209	0.45024	1	2	1	1	1	59
"InstructionMarkovVideoG"	79	1	1	1	0.568795	1.284765	1	3	0	0	1	59
"InstructionMarkovVideoG"	81	0	-1	-1	0.28484	0.94485	2	1	0	0	1	59
"InstructionMarkovVideoG"	82	1	-1	-1	0.78553	0.91326	2	3	0	1	1	59
"InstructionMarkovVideoG"	83	0	-1	1	0.270005	0.32482	1	2	1	1	1	59
"InstructionMarkovVideoG"	85	0	-1	1	1.475945	1.462865	2	3	0	1	1	59
"InstructionMarkovVideoG"	86	0	-1	1	1.20271	0.836205	1	2	1	1	1	59
"InstructionMarkovVideoG"	87	0	1	1	1.50314	1.332165	2	2	0	0	1	59
"InstructionMarkovVideoG"	88	1	-1	-1	0.38592	0.91739	2	4	0	1	1	59
"InstructionMarkovVideoG"	89	1	-1	1	0.368695	1.330195	2	3	0	1	1	59
"InstructionMarkovVideoG"	90	1	-1	1	0.51625	0.77892	2	4	1	1	1	59
"InstructionMarkovVideoG"	92	0	1	1	0.888215	0.90112	2	4	1	1	1	59
"InstructionMarkovVideoG"	93	0	1	1	0.890635	0.90265	1	4	0	0	1	59
"InstructionMarkovVideoG"	94	0	-1	-1	0.65959	0.71136	2	4	0	1	1	59
"InstructionMarkovVideoG"	95	0	-1	1	0.285285	0.704475	1	1	1	1	1	59
"InstructionMarkovVideoG"	96	1	1	1	0.60502	1.26574	1	3	0	0	1	59
"InstructionMarkovVideoG"	97	0	-1	-1	0.228205	0.622565	2	4	0	1	1	59
"InstructionMarkovVideoG"	98	0	-1	1	0.63518	0.67261	1	3	1	0	1	59
"InstructionMarkovVideoG"	99	1	1	-1	0.654025	0.811445	1	2	1	1	1	59
"InstructionMarkovVideoG"	100	0	1	1	1.059175	1.813565	2	4	1	1	1	59
"InstructionMarkovVideoG"	101	1	1	1	1.760115	1.20221	2	4	0	1	1	59
"InstructionMarkovVideoG"	103	1	-1	-1	1.889155	0.98202	1	1	1	1	1	59
"InstructionMarkovVideoG"	104	1	1	1	0.919915	1.229055	1	1	1	1	1	59
"InstructionMarkovVideoG"	105	1	1	1	0.444545	0.57309	1	1	1	1	1	59
"InstructionMarkovVideoG"	106	0	1	1	0.825025	0.847625	2	4	1	1	1	59
"InstructionMarkovVideoG"	107	1	1	1	0.4707	0.53233	2	4	0	1	1	59
"InstructionMarkovVideoG"	108	1	-1	1	0.98873	1.032165	2	4	0	1	1	59
"InstructionMarkovVideoG"	109	0	-1	1	0.407665	0.54779	1	1	0	1	1	59
"InstructionMarkovVideoG"	110	1	-1	1	0.87033	0.50072	1	2	1	1	1	59
"InstructionMarkovVideoG"	111	1	1	1	0.369855	0.65325	1	2	1	1	1	59
"InstructionMarkovVideoG"	112	0	1	1	0.311055	0.46979	2	3	0	1	1	59
"InstructionMarkovVideoG"	113	1	-1	1	0.24025	1.03274	2	1	1	0	1	59
"InstructionMarkovVideoG"	114	1	1	-1	0.606835	0.77804	2	3	0	1	1	59
"InstructionMarkovVideoG"	115	1	-1	1	0.60068	1.79048	2	1	1	0	1	59
"InstructionMarkovVideoG"	117	1	-1	1	0.278725	1.312955	2	3	1	1	1	59
"InstructionMarkovVideoG"	118	1	1	1	0.704115	0.83618	2	1	1	0	1	59
"InstructionMarkovVideoG"	119	1	1	-1	1.223605	1.09954	2	1	1	0	1	59
"InstructionMarkovVideoG"	121	1	-1	-1	0.82277	1.167575	2	1	1	0	1	59
"InstructionMarkovVideoG"	122	1	1	-1	0.558375	0.914285	2	1	1	0	1	59
"InstructionMarkovVideoG"	123	1	1	-1	0.48517	0.70086	2	4	0	1	1	59
"InstructionMarkovVideoG"	124	1	-1	1	0.385425	1.318855	2	4	0	1	1	59
"InstructionMarkovVideoG"	125	1	-1	1	0.25626	0.68073	2	3	0	1	1	59
"InstructionMarkovVideoG"	126	1	-1	1	0.30077	0.59516	2	1	0	0	1	59
"InstructionMarkovVideoG"	127	0	-1	-1	0.45931	1.382995	1	1	0	1	1	59
"InstructionMarkovVideoG"	128	1	-1	1	0.2695	0.66701	1	2	0	1	1	59
"InstructionMarkovVideoG"	129	1	-1	1	0.35183	1.438935	1	1	1	1	1	59
"InstructionMarkovVideoG"	130	1	1	1	1.164	0.68654	1	4	0	0	1	59
"InstructionMarkovVideoG"	131	1	-1	-1	0.29188	1.09575	1	1	1	1	1	59
"InstructionMarkovVideoG"	132	1	1	1	0.35715	0.478985	1	1	1	1	1	59
"InstructionMarkovVideoG"	133	1	1	1	0.33469	0.546255	1	1	0	1	1	59
"InstructionMarkovVideoG"	134	0	-1	1	0.285065	0.650775	2	4	1	1	1	59
"InstructionMarkovVideoG"	135	1	1	1	0.289285	0.58171	2	1	1	0	1	59
"InstructionMarkovVideoG"	136	1	1	-1	0.32968	0.677815	2	1	1	0	1	59
"InstructionMarkovVideoG"	137	1	1	-1	0.362115	0.80021	2	4	0	1	1	59
"InstructionMarkovVideoG"	138	1	-1	1	0.42629	0.57847	2	1	1	0	1	59
"InstructionMarkovVideoG"	139	1	1	-1	0.27815	0.55052	2	4	0	1	1	59
"InstructionMarkovVideoG"	141	1	1	1	0.38947	0.562235	2	3	1	1	1	59
"InstructionMarkovVideoG"	142	1	1	1	0.30672	0.853775	2	3	0	1	1	59
"InstructionMarkovVideoG"	143	1	-1	1	0.26267	0.42619	2	1	0	0	1	59
"InstructionMarkovVideoG"	144	0	-1	-1	0.29152	0.566925	1	1	1	1	1	59
"InstructionMarkovVideoG"	145	1	1	1	0.335135	0.64826	1	1	0	1	1	59
"InstructionMarkovVideoG"	146	1	-1	1	0.32622	0.15099	1	3	1	0	1	59
"InstructionMarkovVideoG"	147	1	1	-1	0.668845	0.92274	1	3	0	0	1	59
"InstructionMarkovVideoG"	148	1	-1	-1	0.31017	0.43971	1	4	0	0	1	59
"InstructionMarkovVideoG"	149	0	-1	-1	0.27101	0.46961	2	1	0	0	1	59
"InstructionMarkovVideoG"	150	1	-1	-1	0.534995	1.43682	2	4	1	1	1	59
"InstructionMarkovVideoG"	151	1	1	1	0.635665	1.04508	2	4	0	1	1	59
"InstructionMarkovVideoG"	152	0	-1	1	0.61937	0.71732	1	1	1	1	1	59
"InstructionMarkovVideoG"	153	1	1	1	0.36852	0.49758	1	1	0	1	1	59
"InstructionMarkovVideoG"	154	1	-1	1	1.228035	0.483755	1	2	0	1	1	59
"InstructionMarkovVideoG"	155	0	-1	1	0.471015	0.955595	2	1	0	0	1	59
"InstructionMarkovVideoG"	156	1	-1	-1	0.518655	0.585255	2	2	1	0	1	59
"InstructionMarkovVideoG"	157	1	1	-1	0.77663	0.842635	2	3	1	1	1	59
"InstructionMarkovVideoG"	158	1	1	1	0.420845	0.67405	2	3	0	1	1	59
"InstructionMarkovVideoG"	159	1	-1	1	0.25881	1.263155	2	4	0	1	1	59
"InstructionMarkovVideoG"	160	1	-1	1	0.30162	1.13795	2	2	0	0	1	59
"InstructionMarkovVideoG"	161	0	-1	-1	0.50339	0.53426	1	1	0	1	1	59
"InstructionMarkovVideoG"	163	1	-1	-1	0.25212	1.704915	2	4	1	1	1	59
"InstructionMarkovVideoG"	164	1	1	1	0.37592	0.54487	2	2	0	0	1	59
"InstructionMarkovVideoG"	165	1	-1	-1	0.489435	0.630545	2	4	0	1	1	59
"InstructionMarkovVideoG"	166	1	-1	1	0.251685	0.435965	2	1	1	0	1	59
"InstructionMarkovVideoG"	167	1	1	-1	0.26829	0.830495	2	4	0	1	1	59
"InstructionMarkovVideoG"	168	0	-1	1	0.568255	0.83734	1	4	1	0	1	59
"InstructionMarkovVideoG"	169	1	1	-1	0.323305	1.030355	1	4	1	0	1	59
"InstructionMarkovVideoG"	170	1	1	-1	0.369495	0.86223	1	1	0	1	1	59
"InstructionMarkovVideoG"	172	0	-1	1	0.752555	0.71663	2	1	1	0	1	59
"InstructionMarkovVideoG"	173	1	1	-1	0.48555	1.5305	2	4	1	1	1	59
"InstructionMarkovVideoG"	174	1	1	1	0.46297	1.73024	2	4	1	1	1	59
"InstructionMarkovVideoG"	176	1	1	-1	0.65314	0.69906	2	1	1	0	1	59
"InstructionMarkovVideoG"	177	1	1	-1	0.97937	1.09534	2	3	0	1	1	59
"InstructionMarkovVideoG"	179	1	-1	1	0.3236	1.196525	2	3	1	1	1	59
"InstructionMarkovVideoG"	180	1	1	1	0.344455	1.646735	2	4	0	1	1	59
"InstructionMarkovVideoG"	181	1	-1	1	0.289895	1.69668	2	1	0	0	1	59
"InstructionMarkovVideoG"	182	1	-1	-1	0.70203	1.947805	2	4	0	1	1	59
"InstructionMarkovVideoG"	183	0	-1	1	0.22786	0.93041	1	4	1	0	1	59
"InstructionMarkovVideoG"	184	1	1	-1	0.34267	0.81254	1	1	1	1	1	59
"InstructionMarkovVideoG"	185	1	1	1	0.484935	0.80394	1	1	1	1	1	59
"InstructionMarkovVideoG"	186	1	1	1	0.336705	0.7861	1	2	1	1	1	59
"InstructionMarkovVideoG"	187	1	1	1	0.38914	1.41316	1	1	0	1	1	59
"InstructionMarkovVideoG"	188	0	-1	1	0.39555	0.64957	2	4	0	1	1	59
"InstructionMarkovVideoG"	189	1	-1	1	0.36284	0.88087	2	3	1	1	1	59
"InstructionMarkovVideoG"	190	1	1	1	0.40156	0.65396	2	1	1	0	1	59
"InstructionMarkovVideoG"	191	1	1	-1	0.44	0.98709	2	1	1	0	1	59
"InstructionMarkovVideoG"	192	1	1	-1	0.37098	1.231435	2	4	0	1	1	59
"InstructionMarkovVideoG"	193	1	-1	1	0.55206	1.913395	2	1	0	0	1	59
"InstructionMarkovVideoG"	194	0	-1	-1	0.32996	0.562365	1	1	1	1	1	59
"InstructionMarkovVideoG"	195	1	1	1	0.602175	1.22169	1	2	0	1	1	59
"InstructionMarkovVideoG"	196	1	-1	1	0.28605	0.85383	1	4	0	0	1	59
"InstructionMarkovVideoG"	197	0	-1	-1	0.45171	1.24686	2	3	1	1	1	59
"InstructionMarkovVideoG"	198	1	1	1	0.35182	0.60434	2	3	0	1	1	59
"InstructionMarkovVideoG"	199	1	-1	1	0.37543	1.028985	2	1	0	0	1	59
"InstructionMarkovVideoG"	200	1	-1	-1	0.35199	0.89798	2	2	0	0	1	59
"InstructionMarkovVideoG"	11	1	-1	1	0.318235	0.511725	2	3	1	1	1	61
"InstructionMarkovVideoG"	12	1	1	1	0.42611	0.52752	2	3	1	1	1	61
"InstructionMarkovVideoG"	13	1	1	1	0.57482	0.554415	2	3	0	1	1	61
"InstructionMarkovVideoG"	14	0	-1	1	0.47101	0.70576	1	2	0	1	1	61
"InstructionMarkovVideoG"	15	1	-1	1	0.479015	0.420485	1	1	0	1	1	61
"InstructionMarkovVideoG"	16	1	-1	1	0.40098	0.566145	1	2	0	1	1	61
"InstructionMarkovVideoG"	17	0	-1	1	0.4128	0.47832	2	2	0	0	1	61
"InstructionMarkovVideoG"	18	1	-1	-1	0.553005	0.59512	2	1	0	0	1	61
"InstructionMarkovVideoG"	19	1	-1	-1	0.360575	1.230415	2	3	0	1	1	61
"InstructionMarkovVideoG"	20	0	-1	1	0.472815	0.467955	1	2	0	1	1	61
"InstructionMarkovVideoG"	21	0	-1	1	0.58722	0.69801	2	4	1	1	1	61
"InstructionMarkovVideoG"	22	1	1	1	0.557095	0.4649	2	4	1	1	1	61
"InstructionMarkovVideoG"	23	1	1	1	0.380105	1.027665	2	2	0	0	1	61
"InstructionMarkovVideoG"	24	1	-1	-1	0.68751	0.562575	2	4	1	1	1	61
"InstructionMarkovVideoG"	25	0	1	1	0.29565	0.944475	1	2	1	1	1	61
"InstructionMarkovVideoG"	26	1	1	1	0.37968	0.73386	1	4	0	0	1	61
"InstructionMarkovVideoG"	27	1	-1	-1	0.488275	0.76343	1	2	0	1	1	61
"InstructionMarkovVideoG"	28	0	-1	1	0.42801	0.651675	2	4	0	1	1	61
"InstructionMarkovVideoG"	29	1	-1	1	0.417605	0.58639	2	3	1	1	1	61
"InstructionMarkovVideoG"	30	1	1	1	0.471615	0.686525	2	2	1	0	1	61
"InstructionMarkovVideoG"	31	1	1	-1	0.509445	1.11389	2	3	1	1	1	61
"InstructionMarkovVideoG"	32	0	1	1	0.445635	0.56896	1	2	1	1	1	61
"InstructionMarkovVideoG"	33	0	1	1	0.376585	1.304005	2	2	1	0	1	61
"InstructionMarkovVideoG"	34	1	1	-1	0.371365	0.76687	2	3	0	1	1	61
"InstructionMarkovVideoG"	35	0	-1	1	0.361435	0.504065	1	2	1	1	1	61
"InstructionMarkovVideoG"	36	0	1	1	0.31617	0.65708	2	4	1	1	1	61
"InstructionMarkovVideoG"	37	1	1	1	0.47488	0.447745	2	4	0	1	1	61
"InstructionMarkovVideoG"	38	1	-1	1	0.33981	0.483545	2	4	0	1	1	61
"InstructionMarkovVideoG"	39	0	-1	1	0.408465	0.45362	1	2	1	1	1	61
"InstructionMarkovVideoG"	40	1	1	1	0.4467	0.54716	1	2	1	1	1	61
"InstructionMarkovVideoG"	41	1	1	1	0.346275	0.451385	1	2	1	1	1	61
"InstructionMarkovVideoG"	42	1	1	1	0.3351	0.428875	1	2	0	1	1	61
"InstructionMarkovVideoG"	43	1	-1	1	0.271745	0.512085	1	4	0	0	1	61
"InstructionMarkovVideoG"	44	0	-1	-1	0.32747	1.103355	2	3	1	1	1	61
"InstructionMarkovVideoG"	45	1	1	1	0.26161	0.450485	2	3	1	1	1	61
"InstructionMarkovVideoG"	46	1	1	1	0.381565	0.492375	2	3	1	1	1	61
"InstructionMarkovVideoG"	47	1	1	1	0.44528	0.41098	2	3	0	1	1	61
"InstructionMarkovVideoG"	48	1	-1	1	0.427635	0.47807	2	2	0	0	1	61
"InstructionMarkovVideoG"	49	0	-1	-1	0.441245	0.46784	1	4	1	0	1	61
"InstructionMarkovVideoG"	50	1	1	-1	0.499975	0.682075	1	1	1	1	1	61
"InstructionMarkovVideoG"	51	1	1	1	0.37338	0.37818	1	2	1	1	1	61
"InstructionMarkovVideoG"	52	0	1	1	0.276435	0.522235	2	2	1	0	1	61
"InstructionMarkovVideoG"	53	1	1	-1	0.44287	0.530825	2	4	1	1	1	61
"InstructionMarkovVideoG"	54	0	1	1	0.388385	0.47546	1	2	1	1	1	61
"InstructionMarkovVideoG"	55	0	1	1	0.378305	0.441165	2	4	0	1	1	61
"InstructionMarkovVideoG"	56	1	-1	1	0.30087	0.48341	2	3	1	1	1	61
"InstructionMarkovVideoG"	57	1	1	1	0.34347	0.76416	2	3	0	1	1	61
"InstructionMarkovVideoG"	58	1	-1	1	0.303975	0.353725	2	4	0	1	1	61
"InstructionMarkovVideoG"	59	1	-1	1	0.66269	0.506385	2	3	1	1	1	61
"InstructionMarkovVideoG"	60	1	1	1	0.418695	0.503435	2	3	1	1	1	61
"InstructionMarkovVideoG"	61	1	1	1	0.28876	0.374075	2	3	0	1	1	61
"InstructionMarkovVideoG"	62	1	-1	1	0.462405	0.387965	2	4	1	1	1	61
"InstructionMarkovVideoG"	63	1	1	1	0.592105	0.426765	2	4	1	1	1	61
"InstructionMarkovVideoG"	64	1	1	1	0.288105	0.829285	2	2	0	0	1	61
"InstructionMarkovVideoG"	65	1	-1	-1	0.344275	0.935715	2	3	1	1	1	61
"InstructionMarkovVideoG"	66	1	1	1	0.317715	0.41184	2	3	1	1	1	61
"InstructionMarkovVideoG"	67	1	1	1	0.21776	0.425205	2	1	1	0	1	61
"InstructionMarkovVideoG"	68	0	1	-1	0.336045	1.179695	1	1	1	1	1	61
"InstructionMarkovVideoG"	69	1	1	1	0.32188	0.52353	1	1	0	1	1	61
"InstructionMarkovVideoG"	70	1	-1	1	0.302125	0.47752	1	2	1	1	1	61
"InstructionMarkovVideoG"	71	1	1	1	0.308405	0.726335	1	3	0	0	1	61
"InstructionMarkovVideoG"	72	1	-1	-1	0.50168	0.313815	1	2	1	1	1	61
"InstructionMarkovVideoG"	73	1	1	1	0.30096	0.51173	1	4	0	0	1	61
"InstructionMarkovVideoG"	74	1	-1	-1	0.496225	0.60723	1	2	0	1	1	61
"InstructionMarkovVideoG"	75	0	-1	1	0.250565	1.02032	2	4	1	1	1	61
"InstructionMarkovVideoG"	76	1	1	1	0.429805	0.378425	2	4	1	1	1	61
"InstructionMarkovVideoG"	77	1	1	1	0.308935	0.68859	2	1	0	0	1	61
"InstructionMarkovVideoG"	78	1	-1	-1	0.270565	0.96043	2	4	0	1	1	61
"InstructionMarkovVideoG"	79	1	-1	1	0.42381	0.354185	2	3	1	1	1	61
"InstructionMarkovVideoG"	80	1	1	1	0.287165	0.46402	2	3	1	1	1	61
"InstructionMarkovVideoG"	81	1	1	1	0.337015	1.116725	2	2	0	0	1	61
"InstructionMarkovVideoG"	82	1	-1	-1	0.441955	0.49394	2	3	1	1	1	61
"InstructionMarkovVideoG"	83	1	1	1	0.40254	0.36024	2	3	1	1	1	61
"InstructionMarkovVideoG"	84	1	1	1	0.3259	0.540835	2	2	1	0	1	61
"InstructionMarkovVideoG"	85	0	1	-1	0.38809	0.601205	1	3	0	0	1	61
"InstructionMarkovVideoG"	86	1	-1	-1	0.337485	0.444035	1	2	1	1	1	61
"InstructionMarkovVideoG"	87	1	1	1	0.33696	0.81656	1	4	1	0	1	61
"InstructionMarkovVideoG"	88	1	1	-1	0.335645	1.168295	1	1	0	1	1	61
"InstructionMarkovVideoG"	89	1	-1	1	0.40148	0.517965	1	2	0	1	1	61
"InstructionMarkovVideoG"	90	1	-1	1	0.31824	0.400425	1	1	0	1	1	61
"InstructionMarkovVideoG"	91	1	-1	1	0.40498	0.857385	1	3	0	0	1	61
"InstructionMarkovVideoG"	92	0	-1	-1	0.266075	0.488545	2	4	0	1	1	61
"InstructionMarkovVideoG"	93	1	-1	1	0.256575	0.61682	2	3	0	1	1	61
"InstructionMarkovVideoG"	94	1	-1	1	0.497975	1.22887	2	2	0	0	1	61
"InstructionMarkovVideoG"	95	1	-1	-1	0.35732	0.48188	2	4	0	1	1	61
"InstructionMarkovVideoG"	96	1	-1	1	0.25848	0.54251	2	1	1	0	1	61
"InstructionMarkovVideoG"	97	1	1	-1	0.33572	0.40793	2	3	1	1	1	61
"InstructionMarkovVideoG"	98	1	1	1	0.37104	0.44471	2	3	1	1	1	61
"InstructionMarkovVideoG"	99	1	1	1	0.32279	0.52261	2	3	1	1	1	61
"InstructionMarkovVideoG"	100	1	1	1	0.484345	0.768835	2	3	1	1	1	61
"InstructionMarkovVideoG"	101	1	1	1	0.368125	0.46791	2	3	0	1	1	61
"InstructionMarkovVideoG"	102	0	-1	1	0.70596	0.447125	1	2	1	1	1	61
"InstructionMarkovVideoG"	103	1	1	1	0.268015	0.34797	1	2	0	1	1	61
"InstructionMarkovVideoG"	104	1	-1	1	0.3588	0.41447	1	1	1	1	1	61
"InstructionMarkovVideoG"	105	1	1	1	0.391535	0.40964	1	1	0	1	1	61
"InstructionMarkovVideoG"	106	1	-1	1	0.53663	0.43707	1	4	0	0	1	61
"InstructionMarkovVideoG"	107	0	-1	-1	0.31237	0.51251	2	4	0	1	1	61
"InstructionMarkovVideoG"	108	1	-1	1	0.347825	1.003625	2	2	1	0	1	61
"InstructionMarkovVideoG"	109	1	1	-1	0.370615	0.827345	2	2	1	0	1	61
"InstructionMarkovVideoG"	110	1	1	-1	0.35098	0.61864	2	2	1	0	1	61
"InstructionMarkovVideoG"	111	1	1	-1	0.286125	0.603075	2	3	0	1	1	61
"InstructionMarkovVideoG"	112	1	-1	1	0.3171	0.467905	2	2	0	0	1	61
"InstructionMarkovVideoG"	113	1	-1	-1	0.310715	0.048895	2	4	1	1	1	61
"InstructionMarkovVideoG"	114	1	1	1	0.490015	0.49732	2	4	1	1	1	61
"InstructionMarkovVideoG"	115	1	1	1	0.37188	0.72009	2	4	1	1	1	61
"InstructionMarkovVideoG"	116	1	1	1	0.647515	0.87334	2	4	0	1	1	61
"InstructionMarkovVideoG"	117	1	-1	1	0.53429	0.70179	2	2	1	0	1	61
"InstructionMarkovVideoG"	118	1	1	-1	0.3521	0.70008	2	4	0	1	1	61
"InstructionMarkovVideoG"	119	0	-1	1	0.31708	0.50126	1	2	1	1	1	61
"InstructionMarkovVideoG"	120	1	1	1	0.347285	0.488865	1	2	0	1	1	61
"InstructionMarkovVideoG"	121	1	-1	1	0.199085	0.45243	1	4	0	0	1	61
"InstructionMarkovVideoG"	122	1	-1	-1	0.31773	0.55177	1	1	1	1	1	61
"InstructionMarkovVideoG"	123	1	1	1	0.501445	0.53467	1	1	1	1	1	61
"InstructionMarkovVideoG"	124	1	1	1	0.315575	0.533275	1	1	1	1	1	61
"InstructionMarkovVideoG"	125	1	1	1	0.35173	0.43469	1	1	0	1	1	61
"InstructionMarkovVideoG"	126	1	-1	1	0.468805	0.536	1	2	1	1	1	61
"InstructionMarkovVideoG"	127	1	1	1	0.39306	0.51847	1	4	0	0	1	61
"InstructionMarkovVideoG"	128	0	-1	-1	0.45298	0.43414	2	2	1	0	1	61
"InstructionMarkovVideoG"	130	1	1	1	0.549205	0.871295	2	4	0	1	1	61
"InstructionMarkovVideoG"	131	1	-1	1	0.31816	0.340705	2	3	1	1	1	61
"InstructionMarkovVideoG"	132	1	1	1	0.399695	0.333905	2	3	0	1	1	61
"InstructionMarkovVideoG"	133	1	-1	1	0.643435	0.551705	2	4	1	1	1	61
"InstructionMarkovVideoG"	134	1	1	1	0.36852	0.66777	2	4	1	1	1	61
"InstructionMarkovVideoG"	135	1	1	1	0.356655	0.5064	2	3	0	1	1	61
"InstructionMarkovVideoG"	136	1	-1	1	0.336685	0.57703	2	4	1	1	1	61
"InstructionMarkovVideoG"	137	1	1	1	0.481865	0.619955	2	4	1	1	1	61
"InstructionMarkovVideoG"	138	1	1	1	0.28598	0.600605	2	4	0	1	1	61
"InstructionMarkovVideoG"	139	1	-1	1	0.41699	0.741935	2	1	1	0	1	61
"InstructionMarkovVideoG"	140	1	1	-1	0.38598	0.492755	2	3	1	1	1	61
"InstructionMarkovVideoG"	141	1	1	1	0.318135	0.800205	2	1	1	0	1	61
"InstructionMarkovVideoG"	142	0	1	-1	0.258015	0.43981	1	2	0	1	1	61
"InstructionMarkovVideoG"	143	1	-1	1	0.55691	0.358	1	1	1	1	1	61
"InstructionMarkovVideoG"	144	1	1	1	0.41007	0.541	1	1	0	1	1	61
"InstructionMarkovVideoG"	145	1	-1	1	0.441295	0.512365	1	2	1	1	1	61
"InstructionMarkovVideoG"	146	1	1	1	0.95002	0.71632	1	2	1	1	1	61
"InstructionMarkovVideoG"	147	1	1	1	0.425445	0.668255	1	2	0	1	1	61
"InstructionMarkovVideoG"	148	1	-1	1	0.3123	0.524735	1	1	1	1	1	61
"InstructionMarkovVideoG"	149	1	1	1	0.35697	0.58711	1	1	0	1	1	61
"InstructionMarkovVideoG"	150	1	-1	1	0.34885	0.43434	1	1	0	1	1	61
"InstructionMarkovVideoG"	151	1	-1	1	0.401865	0.509475	1	2	1	1	1	61
"InstructionMarkovVideoG"	152	1	1	1	0.47107	0.54175	1	2	1	1	1	61
"InstructionMarkovVideoG"	153	1	1	1	0.37401	0.60244	1	2	1	1	1	61
"InstructionMarkovVideoG"	154	1	1	1	0.305795	0.50118	1	2	1	1	1	61
"InstructionMarkovVideoG"	155	1	1	1	0.332355	0.566465	1	2	0	1	1	61
"InstructionMarkovVideoG"	156	0	-1	1	0.10554	0.79997	2	2	1	0	1	61
"InstructionMarkovVideoG"	157	1	1	-1	1.00185	1.034675	2	3	1	1	1	61
"InstructionMarkovVideoG"	158	1	1	1	0.333655	0.83426	2	1	1	0	1	61
"InstructionMarkovVideoG"	159	1	1	-1	0.386475	0.502695	2	4	0	1	1	61
"InstructionMarkovVideoG"	160	1	-1	1	0.308245	0.852505	2	2	1	0	1	61
"InstructionMarkovVideoG"	161	1	1	-1	0.3971	0.500015	2	2	1	0	1	61
"InstructionMarkovVideoG"	162	1	1	-1	0.36922	1.274835	2	4	0	1	1	61
"InstructionMarkovVideoG"	163	0	-1	1	0.30347	0.43509	1	2	0	1	1	61
"InstructionMarkovVideoG"	164	0	-1	1	0.40006	0.569715	2	3	1	1	1	61
"InstructionMarkovVideoG"	165	1	1	1	0.401195	0.55632	2	3	0	1	1	61
"InstructionMarkovVideoG"	166	1	-1	1	0.366645	0.45146	2	4	0	1	1	61
"InstructionMarkovVideoG"	167	0	-1	1	0.670505	0.53679	1	2	1	1	1	61
"InstructionMarkovVideoG"	168	1	1	1	0.58076	0.55015	1	4	1	0	1	61
"InstructionMarkovVideoG"	169	1	1	-1	0.282165	0.685535	1	2	0	1	1	61
"InstructionMarkovVideoG"	170	1	-1	1	0.46218	0.674225	1	2	0	1	1	61
"InstructionMarkovVideoG"	171	1	-1	1	0.39174	0.867175	1	1	1	1	1	61
"InstructionMarkovVideoG"	172	1	1	1	0.494805	0.52556	1	1	1	1	1	61
"InstructionMarkovVideoG"	173	1	1	1	0.40273	0.63287	1	1	0	1	1	61
"InstructionMarkovVideoG"	174	1	-1	1	0.467505	0.40117	1	2	0	1	1	61
"InstructionMarkovVideoG"	175	1	-1	1	0.437875	0.640025	1	1	0	1	1	61
"InstructionMarkovVideoG"	176	0	-1	1	0.63593	0.915675	2	4	0	1	1	61
"InstructionMarkovVideoG"	177	1	-1	1	0.34885	0.453165	2	3	1	1	1	61
"InstructionMarkovVideoG"	178	1	1	1	0.26991	0.538265	2	3	1	1	1	61
"InstructionMarkovVideoG"	179	1	1	1	0.427855	0.474285	2	3	1	1	1	61
"InstructionMarkovVideoG"	180	1	1	1	0.375395	0.955235	2	2	1	0	1	61
"InstructionMarkovVideoG"	181	1	1	-1	0.400885	0.933215	2	2	1	0	1	61
"InstructionMarkovVideoG"	182	1	1	-1	0.43891	0.700095	2	3	0	1	1	61
"InstructionMarkovVideoG"	183	1	-1	1	0.4574	1.18461	2	3	1	1	1	61
"InstructionMarkovVideoG"	184	1	1	1	0.351805	0.584625	2	3	0	1	1	61
"InstructionMarkovVideoG"	185	1	-1	1	0.33486	0.68534	2	3	0	1	1	61
"InstructionMarkovVideoG"	186	0	-1	1	0.33377	0.70693	1	3	1	0	1	61
"InstructionMarkovVideoG"	187	1	1	-1	0.318435	0.835255	1	2	0	1	1	61
"InstructionMarkovVideoG"	188	1	-1	1	0.5333	0.77842	1	2	1	1	1	61
"InstructionMarkovVideoG"	189	1	1	1	0.61514	0.64298	1	2	1	1	1	61
"InstructionMarkovVideoG"	190	1	1	1	0.42113	0.5761	1	2	1	1	1	61
"InstructionMarkovVideoG"	191	1	1	1	0.35982	0.51797	1	2	1	1	1	61
"InstructionMarkovVideoG"	192	1	1	1	0.39171	0.55163	1	2	0	1	1	61
"InstructionMarkovVideoG"	193	1	-1	1	0.48467	0.51796	1	1	1	1	1	61
"InstructionMarkovVideoG"	194	1	1	1	0.461935	1.11648	1	4	0	0	1	61
"InstructionMarkovVideoG"	195	1	-1	-1	0.28893	0.66819	1	1	1	1	1	61
"InstructionMarkovVideoG"	196	1	1	1	0.495575	0.487705	1	1	1	1	1	61
"InstructionMarkovVideoG"	197	1	1	1	0.38618	0.490015	1	1	1	1	1	61
"InstructionMarkovVideoG"	198	1	1	1	0.39951	0.551275	1	1	1	1	1	61
"InstructionMarkovVideoG"	199	1	1	1	0.38687	0.50448	1	1	0	1	1	61
"InstructionMarkovVideoG"	200	0	-1	1	0.26706	0.711915	2	3	0	1	1	61
"InstructionMarkovVideoG"	11	1	1	1	0.38411	1.233955	1	4	1	0	1	65
"InstructionMarkovVideoG"	12	1	1	-1	0.750305	0.52574	1	1	1	1	1	65
"InstructionMarkovVideoG"	13	1	1	1	0.45093	0.45087	1	1	1	1	1	65
"InstructionMarkovVideoG"	14	1	1	1	0.48592	0.376065	1	1	0	1	1	65
"InstructionMarkovVideoG"	15	1	-1	1	0.417005	0.83405	1	1	1	1	1	65
"InstructionMarkovVideoG"	16	1	1	1	0.42279	0.44759	1	1	1	1	1	65
"InstructionMarkovVideoG"	17	1	1	1	0.383675	0.369985	1	1	0	1	1	65
"InstructionMarkovVideoG"	18	1	-1	1	0.400725	0.467065	1	1	1	1	1	65
"InstructionMarkovVideoG"	19	1	1	1	0.500925	0.404505	1	1	1	1	1	65
"InstructionMarkovVideoG"	20	1	1	1	0.331385	0.404735	1	2	0	1	1	65
"InstructionMarkovVideoG"	21	1	-1	1	0.50008	0.81717	1	4	0	0	1	65
"InstructionMarkovVideoG"	22	1	-1	-1	0.40036	0.497185	1	4	0	0	1	65
"InstructionMarkovVideoG"	23	1	-1	-1	0.309265	0.32614	1	1	0	1	1	65
"InstructionMarkovVideoG"	24	0	-1	1	1.92266	1.161755	2	1	0	0	1	65
"InstructionMarkovVideoG"	25	1	-1	-1	0.913	0.97119	2	3	0	1	1	65
"InstructionMarkovVideoG"	26	1	-1	1	0.316825	0.339215	2	2	1	0	1	65
"InstructionMarkovVideoG"	27	0	1	-1	1.5141	0.46636	1	1	0	1	1	65
"InstructionMarkovVideoG"	28	0	-1	1	0.4508	0.70056	2	3	0	1	1	65
"InstructionMarkovVideoG"	29	1	-1	1	0.775525	0.58704	2	4	1	1	1	65
"InstructionMarkovVideoG"	30	1	1	1	0.63396	0.47563	2	4	0	1	1	65
"InstructionMarkovVideoG"	31	1	-1	1	0.6005	1.00249	2	4	1	1	1	65
"InstructionMarkovVideoG"	32	1	1	1	0.50561	0.68595	2	3	1	1	1	65
"InstructionMarkovVideoG"	33	1	1	1	0.450625	1.549625	2	4	0	1	1	65
"InstructionMarkovVideoG"	34	1	-1	1	0.48946	0.633505	2	3	0	1	1	65
"InstructionMarkovVideoG"	35	0	-1	1	0.779495	0.450365	1	1	0	1	1	65
"InstructionMarkovVideoG"	36	1	-1	1	0.294515	0.46233	1	1	0	1	1	65
"InstructionMarkovVideoG"	37	1	-1	1	0.32667	0.469815	1	2	0	1	1	65
"InstructionMarkovVideoG"	38	0	-1	1	0.366835	0.63375	2	3	1	1	1	65
"InstructionMarkovVideoG"	39	1	1	1	0.29668	0.923125	2	4	0	1	1	65
"InstructionMarkovVideoG"	40	1	-1	1	0.275925	0.38386	2	3	1	1	1	65
"InstructionMarkovVideoG"	41	1	1	1	0.383855	0.33447	2	3	1	1	1	65
"InstructionMarkovVideoG"	42	1	1	1	0.45166	0.36727	2	3	0	1	1	65
"InstructionMarkovVideoG"	43	1	-1	1	0.350415	0.31643	2	3	0	1	1	65
"InstructionMarkovVideoG"	44	1	-1	1	0.31808	0.89955	2	1	1	0	1	65
"InstructionMarkovVideoG"	45	1	1	-1	0.417505	0.426065	2	1	1	0	1	65
"InstructionMarkovVideoG"	46	1	1	-1	0.363675	0.66718	2	4	0	1	1	65
"InstructionMarkovVideoG"	47	1	-1	1	0.442145	0.61721	2	3	1	1	1	65
"InstructionMarkovVideoG"	48	1	1	1	0.33425	0.423925	2	3	1	1	1	65
"InstructionMarkovVideoG"	49	1	1	1	0.58338	0.76705	2	3	1	1	1	65
"InstructionMarkovVideoG"	50	1	1	1	0.311675	0.51801	2	3	1	1	1	65
"InstructionMarkovVideoG"	51	1	1	1	0.467205	0.717735	2	2	1	0	1	65
"InstructionMarkovVideoG"	52	1	1	-1	1.088015	0.688035	2	3	0	1	1	65
"InstructionMarkovVideoG"	53	1	-1	1	0.396115	0.44966	2	3	1	1	1	65
"InstructionMarkovVideoG"	54	1	1	1	0.433735	0.500585	2	3	0	1	1	65
"InstructionMarkovVideoG"	55	1	-1	1	0.33609	0.74955	2	4	0	1	1	65
"InstructionMarkovVideoG"	56	1	-1	1	0.29279	0.34406	2	4	0	1	1	65
"InstructionMarkovVideoG"	57	0	-1	1	1.06702	0.31129	1	1	1	1	1	65
"InstructionMarkovVideoG"	58	1	1	1	0.46575	0.38379	1	1	1	1	1	65
"InstructionMarkovVideoG"	59	1	1	1	0.363585	0.484055	1	1	0	1	1	65
"InstructionMarkovVideoG"	60	1	-1	1	0.367255	0.55056	1	2	1	1	1	65
"InstructionMarkovVideoG"	61	1	1	1	0.450475	0.71004	1	3	0	0	1	65
"InstructionMarkovVideoG"	62	1	-1	-1	0.350665	0.53955	1	4	0	0	1	65
"InstructionMarkovVideoG"	63	1	-1	-1	0.46762	0.586175	1	1	1	1	1	65
"InstructionMarkovVideoG"	64	1	1	1	0.3452	0.450545	1	1	1	1	1	65
"InstructionMarkovVideoG"	65	1	1	1	0.333675	0.52552	1	1	1	1	1	65
"InstructionMarkovVideoG"	66	1	1	1	0.487515	0.46726	1	1	1	1	1	65
"InstructionMarkovVideoG"	67	1	1	1	0.31732	0.883855	1	4	1	0	1	65
"InstructionMarkovVideoG"	68	1	1	-1	0.417575	0.49976	1	1	1	1	1	65
"InstructionMarkovVideoG"	69	1	1	1	0.416695	0.417345	1	1	1	1	1	65
"InstructionMarkovVideoG"	70	1	1	1	0.342455	0.383135	1	1	0	1	1	65
"InstructionMarkovVideoG"	71	1	-1	1	0.38401	0.51341	1	2	0	1	1	65
"InstructionMarkovVideoG"	72	0	-1	1	0.37142	0.72192	2	4	0	1	1	65
"InstructionMarkovVideoG"	73	1	-1	1	0.274545	0.350995	2	3	1	1	1	65
"InstructionMarkovVideoG"	74	1	1	1	0.324205	0.68391	2	3	1	1	1	65
"InstructionMarkovVideoG"	75	1	1	1	0.354125	0.42111	2	3	0	1	1	65
"InstructionMarkovVideoG"	76	1	-1	1	0.767115	0.31254	2	1	1	0	1	65
"InstructionMarkovVideoG"	77	1	1	-1	0.322185	0.550685	2	3	0	1	1	65
"InstructionMarkovVideoG"	78	1	-1	1	0.35549	0.83167	2	2	1	0	1	65
"InstructionMarkovVideoG"	79	1	1	-1	0.559945	0.39532	2	4	0	1	1	65
"InstructionMarkovVideoG"	80	1	-1	1	0.25571	1.19961	2	4	0	1	1	65
"InstructionMarkovVideoG"	81	0	-1	1	0.31712	0.40053	1	1	0	1	1	65
"InstructionMarkovVideoG"	82	0	-1	1	0.334375	1.150395	2	2	1	0	1	65
"InstructionMarkovVideoG"	83	1	1	-1	0.350325	0.449795	2	3	1	1	1	65
"InstructionMarkovVideoG"	84	1	1	1	0.420275	0.47005	2	2	1	0	1	65
"InstructionMarkovVideoG"	85	1	1	-1	0.353235	0.51833	2	3	0	1	1	65
"InstructionMarkovVideoG"	86	0	-1	1	0.3004	0.61696	1	4	0	0	1	65
"InstructionMarkovVideoG"	87	1	-1	-1	0.09853	0.607455	1	3	0	0	1	65
"InstructionMarkovVideoG"	88	0	-1	-1	0.288045	0.6338	2	4	1	1	1	65
"InstructionMarkovVideoG"	89	1	1	1	0.31447	0.627495	2	4	1	1	1	65
"InstructionMarkovVideoG"	90	1	1	1	0.535235	0.440195	2	4	1	1	1	65
"InstructionMarkovVideoG"	91	1	1	1	0.307895	0.488455	2	4	1	1	1	65
"InstructionMarkovVideoG"	92	1	1	1	0.417555	0.91705	2	1	0	0	1	65
"InstructionMarkovVideoG"	93	0	-1	-1	0.317275	0.450595	1	1	0	1	1	65
"InstructionMarkovVideoG"	94	0	-1	1	0.336065	0.6344	2	2	1	0	1	65
"InstructionMarkovVideoG"	95	1	1	-1	0.34037	1.30242	2	4	1	1	1	65
"InstructionMarkovVideoG"	96	1	1	1	0.301925	0.434205	2	4	0	1	1	65
"InstructionMarkovVideoG"	97	0	-1	1	0.300815	0.333955	1	1	1	1	1	65
"InstructionMarkovVideoG"	98	1	1	1	0.283905	0.450405	1	1	1	1	1	65
"InstructionMarkovVideoG"	99	1	1	1	0.68165	0.624365	1	1	1	1	1	65
"InstructionMarkovVideoG"	100	1	1	1	0.333835	0.717115	1	4	0	0	1	65
"InstructionMarkovVideoG"	101	0	-1	-1	0.348415	0.683755	2	4	0	1	1	65
"InstructionMarkovVideoG"	102	1	-1	1	0.30075	0.25973	2	3	0	1	1	65
"InstructionMarkovVideoG"	103	0	-1	1	0.297335	1.033775	1	4	0	0	1	65
"InstructionMarkovVideoG"	104	1	-1	-1	0.350405	0.283005	1	1	0	1	1	65
"InstructionMarkovVideoG"	105	1	-1	1	0.450875	0.53825	1	1	0	1	1	65
"InstructionMarkovVideoG"	106	1	-1	1	0.28158	0.46353	1	2	1	1	1	65
"InstructionMarkovVideoG"	107	1	1	1	0.319915	0.383855	1	2	1	1	1	65
"InstructionMarkovVideoG"	108	1	1	1	0.26742	0.73397	1	3	0	0	1	65
"InstructionMarkovVideoG"	109	1	-1	-1	0.38371	0.79621	1	2	0	1	1	65
"InstructionMarkovVideoG"	110	1	-1	1	0.401325	0.618035	1	1	0	1	1	65
"InstructionMarkovVideoG"	111	0	-1	1	0.297325	0.848065	2	4	1	1	1	65
"InstructionMarkovVideoG"	112	1	1	1	0.30049	0.51774	2	1	1	0	1	65
"InstructionMarkovVideoG"	113	1	1	-1	0.385275	0.467675	2	4	0	1	1	65
"InstructionMarkovVideoG"	114	1	-1	1	0.344895	0.60026	2	3	1	1	1	65
"InstructionMarkovVideoG"	115	1	1	1	0.383925	1.07166	2	3	0	1	1	65
"InstructionMarkovVideoG"	116	1	-1	1	0.284035	0.40039	2	4	0	1	1	65
"InstructionMarkovVideoG"	117	0	-1	1	0.300855	0.52994	1	4	0	0	1	65
"InstructionMarkovVideoG"	118	1	-1	-1	0.48392	0.350835	1	1	1	1	1	65
"InstructionMarkovVideoG"	119	1	1	1	0.381585	0.383925	1	1	1	1	1	65
"InstructionMarkovVideoG"	120	1	1	1	0.333995	0.325805	1	3	1	0	1	65
"InstructionMarkovVideoG"	121	1	1	-1	0.3752	1.11116	1	3	0	0	1	65
"InstructionMarkovVideoG"	122	0	-1	-1	0.25066	1.28294	2	1	1	0	1	65
"InstructionMarkovVideoG"	123	1	1	-1	0.400335	0.672905	2	4	1	1	1	65
"InstructionMarkovVideoG"	124	1	1	1	0.28427	0.500525	2	4	1	1	1	65
"InstructionMarkovVideoG"	125	1	1	1	0.344235	0.63397	2	4	0	1	1	65
"InstructionMarkovVideoG"	126	0	-1	1	0.29261	0.46719	1	1	0	1	1	65
"InstructionMarkovVideoG"	127	1	-1	1	0.34251	0.554175	1	2	1	1	1	65
"InstructionMarkovVideoG"	128	1	1	1	0.27367	0.46223	1	2	0	1	1	65
"InstructionMarkovVideoG"	129	1	-1	1	0.279335	0.605915	1	4	0	0	1	65
"InstructionMarkovVideoG"	130	0	-1	-1	0.283715	0.989445	2	4	1	1	1	65
"InstructionMarkovVideoG"	131	1	1	1	0.356475	1.150485	2	1	1	0	1	65
"InstructionMarkovVideoG"	132	1	1	-1	0.451165	0.76713	2	4	1	1	1	65
"InstructionMarkovVideoG"	133	1	1	1	0.47437	0.88534	2	4	0	1	1	65
"InstructionMarkovVideoG"	134	1	-1	1	0.367095	0.4437	2	3	1	1	1	65
"InstructionMarkovVideoG"	135	1	1	1	0.300495	0.3725	2	3	0	1	1	65
"InstructionMarkovVideoG"	136	1	-1	1	0.367285	0.633965	2	4	0	1	1	65
"InstructionMarkovVideoG"	137	0	-1	1	0.315015	0.78667	1	4	0	0	1	65
"InstructionMarkovVideoG"	138	1	-1	-1	0.31506	0.510765	1	3	0	0	1	65
"InstructionMarkovVideoG"	139	0	-1	-1	0.2845	0.45037	2	3	0	1	1	65
"InstructionMarkovVideoG"	140	1	-1	1	0.320105	0.417285	2	4	0	1	1	65
"InstructionMarkovVideoG"	141	0	-1	1	0.36348	1.516655	1	4	1	0	1	65
"InstructionMarkovVideoG"	142	1	1	-1	0.40621	0.61704	1	1	0	1	1	65
"InstructionMarkovVideoG"	143	1	-1	1	0.31989	0.43391	1	2	1	1	1	65
"InstructionMarkovVideoG"	144	1	1	1	0.333925	0.53399	1	2	1	1	1	65
"InstructionMarkovVideoG"	145	1	1	1	0.300605	0.583705	1	2	1	1	1	65
"InstructionMarkovVideoG"	146	1	1	1	0.286065	0.800645	1	3	1	0	1	65
"InstructionMarkovVideoG"	147	1	1	-1	0.28411	0.583835	1	3	0	0	1	65
"InstructionMarkovVideoG"	148	1	-1	-1	0.30064	0.625315	1	1	1	1	1	65
"InstructionMarkovVideoG"	149	1	1	1	0.286685	0.644485	1	4	0	0	1	65
"InstructionMarkovVideoG"	150	1	-1	-1	0.340125	1.109495	1	2	1	1	1	65
"InstructionMarkovVideoG"	151	1	1	1	0.317275	0.56719	1	2	1	1	1	65
"InstructionMarkovVideoG"	152	1	1	1	0.32282	0.48381	1	2	1	1	1	65
"InstructionMarkovVideoG"	153	1	1	1	0.31701	0.450505	1	2	0	1	1	65
"InstructionMarkovVideoG"	154	1	-1	1	0.4009	0.64341	1	1	0	1	1	65
"InstructionMarkovVideoG"	156	1	1	1	0.351355	0.44514	2	4	0	1	1	65
"InstructionMarkovVideoG"	157	1	-1	1	0.333815	0.79615	2	2	1	0	1	65
"InstructionMarkovVideoG"	158	1	1	-1	0.31698	0.767645	2	4	1	1	1	65
"InstructionMarkovVideoG"	159	1	1	1	0.35146	1.500305	2	3	0	1	1	65
"InstructionMarkovVideoG"	160	0	-1	1	0.4834	0.82504	1	1	0	1	1	65
"InstructionMarkovVideoG"	161	1	-1	1	0.28392	0.641295	1	2	0	1	1	65
"InstructionMarkovVideoG"	162	0	-1	1	0.300555	0.483905	2	4	1	1	1	65
"InstructionMarkovVideoG"	164	1	1	1	0.66705	1.617075	2	4	1	1	1	65
"InstructionMarkovVideoG"	165	1	1	1	0.44834	1.58271	2	2	1	0	1	65
"InstructionMarkovVideoG"	166	1	1	-1	0.301385	1.214875	2	4	0	1	1	65
"InstructionMarkovVideoG"	167	1	-1	1	0.31983	0.48311	2	3	0	1	1	65
"InstructionMarkovVideoG"	168	0	-1	1	0.28376	0.633835	1	1	1	1	1	65
"InstructionMarkovVideoG"	169	1	1	1	0.351475	0.61701	1	1	1	1	1	65
"InstructionMarkovVideoG"	170	1	1	1	0.3009	0.37851	1	1	0	1	1	65
"InstructionMarkovVideoG"	171	1	-1	1	0.38461	0.767465	1	3	0	0	1	65
"InstructionMarkovVideoG"	172	0	-1	-1	0.28398	1.18795	2	1	0	0	1	65
"InstructionMarkovVideoG"	173	1	-1	-1	0.31517	0.50078	2	2	1	0	1	65
"InstructionMarkovVideoG"	174	1	1	-1	0.36068	0.75038	2	4	1	1	1	65
"InstructionMarkovVideoG"	175	1	1	1	0.324975	1.843775	2	3	1	1	1	65
"InstructionMarkovVideoG"	176	1	1	1	0.384115	1.46708	2	4	0	1	1	65
"InstructionMarkovVideoG"	177	0	-1	1	0.263715	1.133815	1	3	0	0	1	65
"InstructionMarkovVideoG"	178	1	-1	-1	0.276595	0.583725	1	1	1	1	1	65
"InstructionMarkovVideoG"	179	1	1	1	0.350625	0.433245	1	1	1	1	1	65
"InstructionMarkovVideoG"	180	1	1	1	0.28368	0.650395	1	1	1	1	1	65
"InstructionMarkovVideoG"	181	1	1	1	0.257235	0.48494	1	1	1	1	1	65
"InstructionMarkovVideoG"	182	1	1	1	0.238785	0.36755	1	1	1	1	1	65
"InstructionMarkovVideoG"	183	1	1	1	0.28388	0.466405	1	1	1	1	1	65
"InstructionMarkovVideoG"	184	1	1	1	0.31544	0.519955	1	4	1	0	1	65
"InstructionMarkovVideoG"	185	1	1	-1	0.30037	0.59148	1	1	0	1	1	65
"InstructionMarkovVideoG"	186	1	-1	1	0.31692	0.46723	1	1	0	1	1	65
"InstructionMarkovVideoG"	187	0	-1	1	0.30112	1.049515	2	4	0	1	1	65
"InstructionMarkovVideoG"	188	1	-1	1	0.300995	0.45063	2	3	0	1	1	65
"InstructionMarkovVideoG"	189	0	-1	1	0.342435	0.41713	1	2	1	1	1	65
"InstructionMarkovVideoG"	191	1	1	1	1.434245	0.40057	1	1	1	1	1	65
"InstructionMarkovVideoG"	192	1	1	1	0.34147	0.81716	1	1	0	1	1	65
"InstructionMarkovVideoG"	193	0	-1	1	1.133715	0.517275	2	4	0	1	1	65
"InstructionMarkovVideoG"	194	0	-1	1	0.400605	0.25059	1	2	0	1	1	65
"InstructionMarkovVideoG"	195	0	-1	1	0.350645	0.33388	2	3	0	1	1	65
"InstructionMarkovVideoG"	196	1	-1	1	0.317645	0.52365	2	4	0	1	1	65
"InstructionMarkovVideoG"	197	0	-1	1	0.29182	0.633815	1	1	1	1	1	65
"InstructionMarkovVideoG"	198	1	1	1	0.30089	0.783655	1	4	0	0	1	65
"InstructionMarkovVideoG"	199	1	-1	-1	0.467315	0.567105	1	1	1	1	1	65
"InstructionMarkovVideoG"	200	1	1	1	0.33407	0.38411	1	1	0	1	1	65
"InstructionMarkovVideoG"	11	1	1	-1	0.668785	1.600435	1	1	0	1	1	71
"InstructionMarkovVideoG"	12	1	-1	1	0.33813	1.149445	1	3	1	0	1	71
"InstructionMarkovVideoG"	13	1	1	-1	0.43323	0.476145	1	2	0	1	1	71
"InstructionMarkovVideoG"	14	1	-1	1	0.352075	0.809785	1	1	1	1	1	71
"InstructionMarkovVideoG"	15	1	1	1	0.69389	0.83694	1	1	0	1	1	71
"InstructionMarkovVideoG"	16	1	-1	1	0.3572	1.35066	1	4	0	0	1	71
"InstructionMarkovVideoG"	17	0	-1	-1	0.70188	1.01679	2	3	1	1	1	71
"InstructionMarkovVideoG"	18	1	1	1	0.489845	0.61656	2	3	1	1	1	71
"InstructionMarkovVideoG"	19	1	1	1	0.325085	0.36673	2	3	1	1	1	71
"InstructionMarkovVideoG"	20	1	1	1	0.386595	0.360455	2	3	0	1	1	71
"InstructionMarkovVideoG"	21	1	-1	1	0.3505	1.011385	2	1	1	0	1	71
"InstructionMarkovVideoG"	22	1	1	-1	0.350305	0.817025	2	1	0	0	1	71
"InstructionMarkovVideoG"	23	1	-1	-1	0.315625	0.756375	2	3	1	1	1	71
"InstructionMarkovVideoG"	24	1	1	1	0.57814	1.516395	2	2	0	0	1	71
"InstructionMarkovVideoG"	25	1	-1	-1	0.37474	0.589835	2	1	1	0	1	71
"InstructionMarkovVideoG"	26	1	1	-1	0.283765	1.149175	2	4	0	1	1	71
"InstructionMarkovVideoG"	27	1	-1	1	0.595015	0.633695	2	4	0	1	1	71
"InstructionMarkovVideoG"	28	1	-1	1	0.349725	0.392845	2	3	0	1	1	71
"InstructionMarkovVideoG"	29	1	-1	1	1.642985	0.783275	2	4	0	1	1	71
"InstructionMarkovVideoG"	30	0	-1	1	0.33993	0.95852	1	4	0	0	1	71
"InstructionMarkovVideoG"	31	1	-1	-1	0.499545	0.939815	1	1	0	1	1	71
"InstructionMarkovVideoG"	32	1	-1	1	1.110425	0.882425	1	4	1	0	1	71
"InstructionMarkovVideoG"	33	1	1	-1	0.334265	0.70052	1	1	1	1	1	71
"InstructionMarkovVideoG"	34	1	1	1	0.43296	1.065165	1	2	1	1	1	71
"InstructionMarkovVideoG"	35	1	1	1	0.323245	0.76693	1	4	1	0	1	71
"InstructionMarkovVideoG"	36	1	1	-1	0.374415	0.582765	1	4	0	0	1	71
"InstructionMarkovVideoG"	37	1	-1	-1	0.33812	1.92171	1	1	1	1	1	71
"InstructionMarkovVideoG"	38	1	1	1	0.687315	0.825915	1	1	0	1	1	71
"InstructionMarkovVideoG"	39	1	-1	1	0.464235	0.854875	1	1	0	1	1	71
"InstructionMarkovVideoG"	40	1	-1	1	0.49041	0.489045	1	2	0	1	1	71
"InstructionMarkovVideoG"	41	1	-1	1	0.4701	0.616475	1	1	1	1	1	71
"InstructionMarkovVideoG"	42	0	1	1	0.64941	1.307965	2	1	1	0	1	71
"InstructionMarkovVideoG"	43	1	1	-1	0.31734	0.683785	2	4	0	1	1	71
"InstructionMarkovVideoG"	44	1	-1	1	0.28148	0.649745	2	1	1	0	1	71
"InstructionMarkovVideoG"	45	1	1	-1	0.316445	0.765365	2	4	0	1	1	71
"InstructionMarkovVideoG"	46	1	-1	1	0.2835	0.47419	2	3	0	1	1	71
"InstructionMarkovVideoG"	47	1	-1	1	0.156115	0.598685	2	4	1	1	1	71
"InstructionMarkovVideoG"	48	1	1	1	0.388235	0.484695	2	2	1	0	1	71
"InstructionMarkovVideoG"	49	1	1	-1	0.33348	1.233145	2	4	0	1	1	71
"InstructionMarkovVideoG"	50	1	-1	1	0.297265	0.499455	2	3	1	1	1	71
"InstructionMarkovVideoG"	51	1	1	1	0.275825	1.44894	2	2	0	0	1	71
"InstructionMarkovVideoG"	52	1	-1	-1	1.216575	1.98172	2	4	0	1	1	71
"InstructionMarkovVideoG"	53	1	-1	1	0.300285	0.476055	2	3	1	1	1	71
"InstructionMarkovVideoG"	54	1	1	1	0.300535	0.42564	2	3	1	1	1	71
"InstructionMarkovVideoG"	55	1	1	1	0.283425	0.396315	2	3	0	1	1	71
"InstructionMarkovVideoG"	56	1	-1	1	0.274965	0.400115	2	3	1	1	1	71
"InstructionMarkovVideoG"	57	1	1	1	0.35556	0.350915	2	3	0	1	1	71
"InstructionMarkovVideoG"	58	1	-1	1	0.516425	0.38429	2	1	0	0	1	71
"InstructionMarkovVideoG"	59	1	-1	-1	0.45024	0.54887	2	3	1	1	1	71
"InstructionMarkovVideoG"	60	1	1	1	0.31732	0.484265	2	3	1	1	1	71
"InstructionMarkovVideoG"	61	1	1	1	0.297105	0.45447	2	3	0	1	1	71
"InstructionMarkovVideoG"	62	1	-1	1	0.413325	0.374675	2	3	0	1	1	71
"InstructionMarkovVideoG"	63	1	-1	1	0.114985	0.44982	2	3	1	1	1	71
"InstructionMarkovVideoG"	64	1	1	1	0.30581	0.533925	2	3	0	1	1	71
"InstructionMarkovVideoG"	65	0	-1	1	0.5915	0.938245	1	1	1	1	1	71
"InstructionMarkovVideoG"	66	1	1	1	0.30835	1.308615	1	4	0	0	1	71
"InstructionMarkovVideoG"	67	1	-1	-1	0.2386	0.568755	1	1	1	1	1	71
"InstructionMarkovVideoG"	68	1	1	1	0.384215	0.75278	1	1	0	1	1	71
"InstructionMarkovVideoG"	69	1	-1	1	0.117175	1.465915	1	4	1	0	1	71
"InstructionMarkovVideoG"	70	1	1	-1	0.39098	0.653085	1	4	0	0	1	71
"InstructionMarkovVideoG"	71	1	-1	-1	0.82398	0.639135	1	1	0	1	1	71
"InstructionMarkovVideoG"	73	1	1	1	0.33388	0.977685	1	1	0	1	1	71
"InstructionMarkovVideoG"	74	1	-1	1	0.40139	1.469725	1	1	1	1	1	71
"InstructionMarkovVideoG"	75	1	1	1	0.3517	0.54704	1	1	0	1	1	71
"InstructionMarkovVideoG"	76	1	-1	1	1.859545	0.92517	1	4	0	0	1	71
"InstructionMarkovVideoG"	77	1	-1	-1	0.25904	0.84988	1	4	0	0	1	71
"InstructionMarkovVideoG"	78	1	-1	-1	0.29431	0.494255	1	3	0	0	1	71
"InstructionMarkovVideoG"	79	1	-1	-1	0.122505	0.51689	1	3	0	0	1	71
"InstructionMarkovVideoG"	80	1	-1	-1	0.3005	0.704615	1	1	1	1	1	71
"InstructionMarkovVideoG"	81	1	1	1	0.31487	0.68547	1	3	1	0	1	71
"InstructionMarkovVideoG"	82	1	1	-1	0.274245	1.015315	1	1	1	1	1	71
"InstructionMarkovVideoG"	83	1	1	1	0.28604	0.695385	1	1	0	1	1	71
"InstructionMarkovVideoG"	84	1	-1	1	0.32685	0.97331	1	4	1	0	1	71
"InstructionMarkovVideoG"	85	1	1	-1	0.292075	0.62413	1	1	1	1	1	71
"InstructionMarkovVideoG"	86	1	1	1	0.300205	0.534775	1	1	1	1	1	71
"InstructionMarkovVideoG"	87	1	1	1	0.28383	0.783485	1	1	1	1	1	71
"InstructionMarkovVideoG"	88	1	1	1	0.270425	0.491535	1	1	1	1	1	71
"InstructionMarkovVideoG"	89	1	1	1	0.290745	0.460435	1	1	1	1	1	71
"InstructionMarkovVideoG"	90	1	1	1	0.3166	0.59974	1	1	1	1	1	71
"InstructionMarkovVideoG"	91	1	1	1	0.333325	0.73346	1	4	0	0	1	71
"InstructionMarkovVideoG"	92	1	-1	-1	0.345305	0.51748	1	1	0	1	1	71
"InstructionMarkovVideoG"	93	1	-1	1	0.30039	0.53471	1	1	1	1	1	71
"InstructionMarkovVideoG"	94	1	1	1	0.29939	0.417955	1	1	1	1	1	71
"InstructionMarkovVideoG"	95	1	1	1	0.253265	0.37213	1	3	0	0	1	71
"InstructionMarkovVideoG"	96	1	-1	-1	0.416575	0.649555	1	4	0	0	1	71
"InstructionMarkovVideoG"	97	1	-1	-1	0.050255	0.52167	1	1	0	1	1	71
"InstructionMarkovVideoG"	98	1	-1	1	0.373875	0.45174	1	1	0	1	1	71
"InstructionMarkovVideoG"	99	0	-1	1	0.40075	1.09069	2	4	1	1	1	71
"InstructionMarkovVideoG"	100	1	1	1	0.394755	0.57476	2	4	0	1	1	71
"InstructionMarkovVideoG"	101	1	-1	1	0.36732	0.916195	2	1	0	0	1	71
"InstructionMarkovVideoG"	102	1	-1	-1	0.29382	0.88858	2	4	0	1	1	71
"InstructionMarkovVideoG"	103	1	-1	1	0.3344	1.41619	2	2	1	0	1	71
"InstructionMarkovVideoG"	104	1	1	-1	0.391065	0.8511	2	4	1	1	1	71
"InstructionMarkovVideoG"	105	1	1	1	0.326935	0.568615	2	4	0	1	1	71
"InstructionMarkovVideoG"	106	1	-1	1	0.32767	0.55884	2	4	1	1	1	71
"InstructionMarkovVideoG"	107	1	1	1	0.335795	1.03276	2	4	1	1	1	71
"InstructionMarkovVideoG"	108	1	1	1	0.56808	0.630515	2	4	1	1	1	71
"InstructionMarkovVideoG"	109	1	1	1	0.432645	0.683335	2	4	1	1	1	71
"InstructionMarkovVideoG"	110	1	1	1	0.32459	0.78074	2	4	1	1	1	71
"InstructionMarkovVideoG"	111	1	1	1	0.4658	0.922575	2	1	0	0	1	71
"InstructionMarkovVideoG"	112	1	-1	-1	0.351435	0.61771	2	4	0	1	1	71
"InstructionMarkovVideoG"	113	1	-1	1	0.60279	0.97953	2	1	1	0	1	71
"InstructionMarkovVideoG"	114	1	1	-1	0.323045	0.623025	2	4	0	1	1	71
"InstructionMarkovVideoG"	115	0	-1	1	0.537615	1.32357	1	1	1	1	1	71
"InstructionMarkovVideoG"	116	1	1	1	0.223375	0.904025	1	4	1	0	1	71
"InstructionMarkovVideoG"	117	1	1	-1	0.317005	0.513845	1	1	1	1	1	71
"InstructionMarkovVideoG"	118	1	1	1	0.307005	0.62305	1	4	1	0	1	71
"InstructionMarkovVideoG"	119	1	1	-1	0.351345	0.82398	1	4	0	0	1	71
"InstructionMarkovVideoG"	120	1	-1	-1	0.30062	0.514155	1	1	0	1	1	71
"InstructionMarkovVideoG"	121	1	-1	1	0.520235	1.030785	1	2	0	1	1	71
"InstructionMarkovVideoG"	122	1	-1	1	0.957165	0.973715	1	1	1	1	1	71
"InstructionMarkovVideoG"	123	1	1	1	0.28588	0.59753	1	1	0	1	1	71
"InstructionMarkovVideoG"	124	1	-1	1	0.292495	0.464565	1	1	1	1	1	71
"InstructionMarkovVideoG"	125	1	1	1	0.33315	0.57281	1	1	0	1	1	71
"InstructionMarkovVideoG"	126	1	-1	1	0.30475	0.498555	1	1	1	1	1	71
"InstructionMarkovVideoG"	127	1	1	1	0.318905	1.112905	1	4	0	0	1	71
"InstructionMarkovVideoG"	128	0	-1	-1	0.339685	0.87132	2	4	0	1	1	71
"InstructionMarkovVideoG"	129	1	-1	1	0.338985	0.52253	2	3	0	1	1	71
"InstructionMarkovVideoG"	130	1	-1	1	0.352835	0.59761	2	4	0	1	1	71
"InstructionMarkovVideoG"	131	1	-1	1	0.2753	0.564625	2	4	0	1	1	71
"InstructionMarkovVideoG"	132	1	-1	1	0.37715	0.466305	2	3	0	1	1	71
"InstructionMarkovVideoG"	133	1	-1	1	0.116765	0.329915	2	3	0	1	1	71
"InstructionMarkovVideoG"	134	0	-1	1	0.30637	0.49652	1	2	1	1	1	71
"InstructionMarkovVideoG"	135	1	1	1	0.41026	0.51523	1	2	1	1	1	71
"InstructionMarkovVideoG"	136	1	1	1	0.28967	0.4799	1	2	1	1	1	71
"InstructionMarkovVideoG"	137	1	1	1	0.32687	0.772195	1	2	0	1	1	71
"InstructionMarkovVideoG"	138	1	-1	1	0.411335	1.724735	1	1	0	1	1	71
"InstructionMarkovVideoG"	139	1	-1	1	0.33827	0.58213	1	2	1	1	1	71
"InstructionMarkovVideoG"	140	1	1	1	0.51883	0.55809	1	2	0	1	1	71
"InstructionMarkovVideoG"	141	1	-1	1	0.888885	0.441845	1	4	0	0	1	71
"InstructionMarkovVideoG"	142	1	-1	-1	0.283385	0.647015	1	2	1	1	1	71
"InstructionMarkovVideoG"	143	1	1	1	0.302545	0.581265	1	2	1	1	1	71
"InstructionMarkovVideoG"	145	1	1	-1	0.334135	0.598025	1	2	1	1	1	71
"InstructionMarkovVideoG"	146	1	1	1	0.301335	0.531315	1	2	1	1	1	71
"InstructionMarkovVideoG"	147	1	1	1	0.302445	0.487745	1	2	0	1	1	71
"InstructionMarkovVideoG"	148	1	-1	1	0.270935	0.43089	1	2	0	1	1	71
"InstructionMarkovVideoG"	149	0	-1	1	0.330675	0.397375	2	3	0	1	1	71
"InstructionMarkovVideoG"	150	1	-1	1	0.32921	0.43846	2	2	0	0	1	71
"InstructionMarkovVideoG"	151	1	-1	-1	0.390155	1.21388	2	4	0	1	1	71
"InstructionMarkovVideoG"	152	1	-1	1	0.418375	0.836365	2	1	1	0	1	71
"InstructionMarkovVideoG"	153	1	1	-1	0.31689	0.357535	2	3	0	1	1	71
"InstructionMarkovVideoG"	154	1	-1	1	0.317545	0.854945	2	4	0	1	1	71
"InstructionMarkovVideoG"	155	1	-1	1	0.03734	0.60759	2	4	1	1	1	71
"InstructionMarkovVideoG"	156	1	1	1	0.29571	0.464535	2	4	1	1	1	71
"InstructionMarkovVideoG"	157	1	1	1	0.29508	0.45178	2	4	0	1	1	71
"InstructionMarkovVideoG"	158	1	-1	1	0.334345	0.434825	2	4	1	1	1	71
"InstructionMarkovVideoG"	159	1	1	1	0.334765	0.41467	2	4	0	1	1	71
"InstructionMarkovVideoG"	160	1	-1	1	0.318565	0.417775	2	2	1	0	1	71
"InstructionMarkovVideoG"	161	1	1	-1	0.469275	0.72917	2	4	1	1	1	71
"InstructionMarkovVideoG"	162	1	1	1	0.535155	0.58068	2	4	0	1	1	71
"InstructionMarkovVideoG"	163	1	-1	1	0.15828	0.62626	2	4	0	1	1	71
"InstructionMarkovVideoG"	164	0	-1	1	0.29115	1.525785	1	4	1	0	1	71
"InstructionMarkovVideoG"	165	1	1	-1	0.334955	1.01374	1	1	0	1	1	71
"InstructionMarkovVideoG"	166	1	-1	1	0.25284	1.01397	1	4	1	0	1	71
"InstructionMarkovVideoG"	167	1	1	-1	0.071045	1.20492	1	2	1	1	1	71
"InstructionMarkovVideoG"	168	1	1	1	0.000515	0.658965	1	2	1	1	1	71
"InstructionMarkovVideoG"	169	1	1	1	0.302915	0.62184	1	2	0	1	1	71
"InstructionMarkovVideoG"	170	1	-1	1	0.110965	0.5731	1	2	1	1	1	71
"InstructionMarkovVideoG"	171	1	1	1	0.32256	0.46762	1	4	0	0	1	71
"InstructionMarkovVideoG"	172	1	-1	-1	0.73314	0.66335	1	4	0	0	1	71
"InstructionMarkovVideoG"	173	1	-1	-1	0.499875	0.684635	1	4	1	0	1	71
"InstructionMarkovVideoG"	174	1	1	-1	0.32322	0.38466	1	4	0	0	1	71
"InstructionMarkovVideoG"	175	1	-1	-1	0.322795	0.64732	1	4	0	0	1	71
"InstructionMarkovVideoG"	176	1	-1	-1	0.293785	0.84682	1	2	0	1	1	71
"InstructionMarkovVideoG"	177	1	-1	1	0.06675	0.42975	1	3	1	0	1	71
"InstructionMarkovVideoG"	178	1	1	-1	0.213345	0.814715	1	1	0	1	1	71
"InstructionMarkovVideoG"	179	1	-1	1	0.940685	0.483195	1	3	1	0	1	71
"InstructionMarkovVideoG"	180	1	1	-1	0.35058	0.61499	1	3	1	0	1	71
"InstructionMarkovVideoG"	181	1	1	-1	0.30235	1.15086	1	2	1	1	1	71
"InstructionMarkovVideoG"	182	1	1	1	0.283185	0.56451	1	3	0	0	1	71
"InstructionMarkovVideoG"	183	1	-1	-1	0.169015	0.652655	1	2	1	1	1	71
"InstructionMarkovVideoG"	184	1	1	1	0.2766	0.55106	1	3	0	0	1	71
"InstructionMarkovVideoG"	185	1	-1	-1	0.29674	0.798185	1	3	0	0	1	71
"InstructionMarkovVideoG"	186	1	-1	-1	0.36345	0.717915	1	2	1	1	1	71
"InstructionMarkovVideoG"	187	1	1	1	0.1346	0.820005	1	2	1	1	1	71
"InstructionMarkovVideoG"	188	1	1	1	0.293635	0.703755	1	2	1	1	1	71
"InstructionMarkovVideoG"	189	1	1	1	0.277135	0.498445	1	2	1	1	1	71
"InstructionMarkovVideoG"	190	1	1	1	0.32629	0.58593	1	2	1	1	1	71
"InstructionMarkovVideoG"	191	1	1	1	0.395485	0.39956	1	2	0	1	1	71
"InstructionMarkovVideoG"	192	1	-1	1	0.53739	0.550715	1	2	1	1	1	71
"InstructionMarkovVideoG"	193	1	1	1	0.286065	0.485745	1	4	1	0	1	71
"InstructionMarkovVideoG"	194	1	1	-1	0.24446	0.64112	1	2	1	1	1	71
"InstructionMarkovVideoG"	195	1	1	1	0.22776	0.43075	1	2	1	1	1	71
"InstructionMarkovVideoG"	196	1	1	1	0.22464	0.66224	1	2	1	1	1	71
"InstructionMarkovVideoG"	197	1	1	1	0.35515	0.36974	1	2	0	1	1	71
"InstructionMarkovVideoG"	198	1	-1	1	0.31668	0.345775	1	4	1	0	1	71
"InstructionMarkovVideoG"	199	1	1	-1	0.28891	0.364095	1	2	0	1	1	71
"InstructionMarkovVideoG"	11	1	1	1	0.390945	0.36606	2	4	0	1	1	72
"InstructionMarkovVideoG"	12	1	-1	1	0.599135	0.652255	2	3	0	1	1	72
"InstructionMarkovVideoG"	13	1	-1	1	1.40844	0.931545	2	4	1	1	1	72
"InstructionMarkovVideoG"	14	1	1	1	0.418415	0.432635	2	4	1	1	1	72
"InstructionMarkovVideoG"	15	1	1	1	0.45465	0.369555	2	4	0	1	1	72
"InstructionMarkovVideoG"	16	1	-1	1	0.53754	0.31162	2	2	1	0	1	72
"InstructionMarkovVideoG"	17	1	1	-1	0.467285	0.410875	2	2	1	0	1	72
"InstructionMarkovVideoG"	18	1	1	-1	0.33375	0.39899	2	4	0	1	1	72
"InstructionMarkovVideoG"	19	1	-1	1	0.421755	0.299925	2	2	1	0	1	72
"InstructionMarkovVideoG"	20	1	1	-1	0.3016	0.333445	2	4	0	1	1	72
"InstructionMarkovVideoG"	21	1	-1	1	0.44477	0.29984	2	3	0	1	1	72
"InstructionMarkovVideoG"	22	0	-1	1	0.50512	0.33439	1	4	1	0	1	72
"InstructionMarkovVideoG"	23	1	1	-1	0.43356	0.31617	1	2	1	1	1	72
"InstructionMarkovVideoG"	24	1	1	1	0.36744	0.31667	1	2	1	1	1	72
"InstructionMarkovVideoG"	25	1	1	1	0.32931	0.317055	1	2	1	1	1	72
"InstructionMarkovVideoG"	26	1	1	1	0.319275	0.299145	1	2	0	1	1	72
"InstructionMarkovVideoG"	27	1	-1	1	0.34939	0.31677	1	2	1	1	1	72
"InstructionMarkovVideoG"	28	1	1	1	0.3178	0.28568	1	2	1	1	1	72
"InstructionMarkovVideoG"	29	1	1	1	0.354005	0.30359	1	4	1	0	1	72
"InstructionMarkovVideoG"	30	1	1	-1	0.30537	0.316695	1	2	1	1	1	72
"InstructionMarkovVideoG"	31	1	1	1	0.55627	0.268785	1	2	0	1	1	72
"InstructionMarkovVideoG"	32	1	-1	1	0.66674	0.283595	1	2	1	1	1	72
"InstructionMarkovVideoG"	33	1	1	1	0.30518	0.35255	1	2	1	1	1	72
"InstructionMarkovVideoG"	34	1	1	1	0.316465	0.345585	1	2	1	1	1	72
"InstructionMarkovVideoG"	35	1	1	1	0.30178	0.40414	1	2	1	1	1	72
"InstructionMarkovVideoG"	36	1	1	1	0.22152	0.27077	1	2	0	1	1	72
"InstructionMarkovVideoG"	37	1	-1	1	0.25709	0.262215	1	2	0	1	1	72
"InstructionMarkovVideoG"	38	1	-1	1	0.9605	0.40182	1	1	1	1	1	72
"InstructionMarkovVideoG"	39	1	1	1	0.307345	0.299865	1	1	1	1	1	72
"InstructionMarkovVideoG"	40	1	1	1	0.28604	0.2386	1	3	0	0	1	72
"InstructionMarkovVideoG"	41	1	-1	-1	0.258355	0.167375	1	1	0	1	1	72
"InstructionMarkovVideoG"	42	0	-1	1	0.383645	0.445025	2	4	0	1	1	72
"InstructionMarkovVideoG"	43	1	-1	1	0.320315	0.250535	2	3	1	1	1	72
"InstructionMarkovVideoG"	44	1	1	1	0.28853	0.250255	2	3	0	1	1	72
"InstructionMarkovVideoG"	45	1	-1	1	0.46242	0.267305	2	3	1	1	1	72
"InstructionMarkovVideoG"	46	1	1	1	0.31678	0.261805	2	1	0	0	1	72
"InstructionMarkovVideoG"	47	1	-1	-1	0.44951	0.23357	2	3	0	1	1	72
"InstructionMarkovVideoG"	48	1	-1	1	0.359865	0.411165	2	4	0	1	1	72
"InstructionMarkovVideoG"	49	0	-1	1	0.333505	0.28567	1	2	0	1	1	72
"InstructionMarkovVideoG"	50	1	-1	1	0.31135	0.369455	1	1	1	1	1	72
"InstructionMarkovVideoG"	51	1	1	1	0.288635	0.21946	1	1	0	1	1	72
"InstructionMarkovVideoG"	52	1	-1	1	0.283755	0.216975	1	3	0	0	1	72
"InstructionMarkovVideoG"	53	0	-1	-1	0.53829	0.29481	2	2	1	0	1	72
"InstructionMarkovVideoG"	54	1	1	-1	0.33816	0.235405	2	3	0	1	1	72
"InstructionMarkovVideoG"	55	1	-1	1	0.251105	0.283305	2	4	0	1	1	72
"InstructionMarkovVideoG"	56	0	-1	1	0.350125	0.250685	1	2	1	1	1	72
"InstructionMarkovVideoG"	57	1	1	1	0.3165	0.29905	1	4	0	0	1	72
"InstructionMarkovVideoG"	58	1	-1	-1	0.29245	0.28769	1	2	1	1	1	72
"InstructionMarkovVideoG"	59	1	1	1	0.27074	0.19514	1	2	1	1	1	72
"InstructionMarkovVideoG"	60	1	1	1	0.237215	0.271695	1	2	1	1	1	72
"InstructionMarkovVideoG"	61	1	1	1	0.30064	0.981655	1	3	0	0	1	72
"InstructionMarkovVideoG"	62	1	-1	-1	0.339855	0.47773	1	2	1	1	1	72
"InstructionMarkovVideoG"	63	1	1	1	0.283785	0.34663	1	2	1	1	1	72
"InstructionMarkovVideoG"	64	1	1	1	0.41026	0.410915	1	3	1	0	1	72
"InstructionMarkovVideoG"	65	1	1	-1	0.2839	0.44946	1	2	1	1	1	72
